Time,roll,pitch,yaw,Accel_x,Accel_y,Accel_z,Gyro_x,Gyro_y,Gyro_z,Compass_x,Compass_y,Compass_z
0.0011098384857177734,-1.5845936421592033,8.895485549541927,-15.914699351061135,-0.15050165355205536,-0.02659040503203869,0.9612114429473877,-0.0008798763155937195,-0.015967125073075294,-0.000561536755412817,10.04431438446045,2.8780651092529297,3.1018426418304443
0.012451887130737305,-1.5903765712303826,8.883624072274554,-15.92780648407839,-0.149786114692688,-0.031214823946356773,0.9618968963623047,-0.00033938512206077576,-0.016101665794849396,-0.0010672961361706257,17.40387725830078,5.180517196655273,5.721128940582275
0.0237579345703125,-1.591161616098111,8.870281297730935,-15.944029890904464,-0.1488320678472519,-0.027052847668528557,0.9646386504173279,-0.00033120810985565186,-0.016232963651418686,-0.0025994498282670975,23.291528701782227,7.022479057312012,7.816558361053467
0.035077810287475586,-1.5926759971031497,8.857715457205403,-15.957073844671894,-0.1488320678472519,-0.028440173715353012,0.963496208190918,0.0007153525948524475,-0.015841808170080185,-0.00045965006574988365,28.3395938873291,8.496047973632812,9.768526077270508
0.04638481140136719,-1.5923983072247063,8.84608193750158,-15.968454647376428,-0.1488320678472519,-0.02659040503203869,0.9630392789840698,0.00017882511019706726,-0.014940787106752396,-0.000967864878475666,32.37804412841797,9.674903869628906,11.330101013183594
0.05768299102783203,-1.593258911060128,8.8357137103415,-15.984225554169988,-0.15026314556598663,-0.02728406898677349,0.9639531970024109,-0.0003447718918323517,-0.015619350597262383,-0.0009445426985621452,35.60880661010742,10.79746150970459,12.441548347473145
0.06897687911987305,-1.5954036971812178,8.827040223869231,-16.002796838523253,-0.15074016153812408,-0.028440173715353012,0.964181661605835,-0.0003364644944667816,-0.014204399660229683,-0.0004024920053780079,38.193416595458984,11.695508003234863,13.330705642700195
0.08026385307312012,-1.5959658004055686,8.812953812479725,-16.023586226809478,-0.14644692838191986,-0.02728406898677349,0.9628108143806458,0.00019093230366706848,-0.015419996343553066,-0.0014313743449747562,40.261104583740234,12.413945198059082,14.17984390258789
0.09156084060668945,-1.597061405437121,8.800710698392477,-16.044729077385252,-0.14716246724128723,-0.02728406898677349,0.964181661605835,-0.0008522458374500275,-0.014009849168360233,-0.00035830214619636536,41.915252685546875,12.988694190979004,14.85915470123291
0.10285592079162598,-1.5982873176714325,8.790523471245404,-16.069660975403092,-0.14859354496002197,-0.02774650976061821,0.9646386504173279,-0.00031241774559020996,-0.01367226243019104,-0.00034966832026839256,43.40754318237305,13.627967834472656,15.264791488647461
0.1141519546508789,-1.5981633070493144,8.781175503592594,-16.09681439244848,-0.14835503697395325,-0.027515290305018425,0.9628108143806458,0.001252979040145874,-0.012823520228266716,0.00017804792150855064,44.601375579833984,14.139386177062988,15.589300155639648
0.12544989585876465,-1.6002540919872787,8.772084521807308,-16.122960356591285,-0.1488320678472519,-0.028440173715353012,0.9646386504173279,-0.00033508241176605225,-0.013033810071647167,-0.0008648233488202095,45.55644226074219,14.369047164916992,15.573283195495605
0.13709282875061035,-1.598554655544415,8.764981125070495,-16.146070301648024,-0.149786114692688,-0.0256655216217041,0.965781033039093,0.0001922808587551117,-0.01168116182088852,-0.0003246935084462166,46.32049560546875,14.552776336669922,15.560469627380371
0.14943480491638184,-1.6026394288332,8.756385332000033,-16.169053888205116,-0.14859354496002197,-0.029827497899532318,0.964410126209259,-0.0008509308099746704,-0.012438269332051277,-0.0008361600339412689,46.42482376098633,14.520286560058594,15.963655471801758
0.16106796264648438,-1.604246444278857,8.748747472960666,-16.189337842492762,-0.14930908381938934,-0.028208952397108078,0.965781033039093,-0.00031113624572753906,-0.012138551101088524,-0.0002967212349176407,46.50828552246094,14.494294166564941,16.286203384399414
0.1734168529510498,-1.6059529243543025,8.741677373396056,-16.209925740198475,-0.14859354496002197,-0.028208952397108078,0.9618968963623047,-0.00030363723635673523,-0.011326765641570091,-0.00028957147151231766,46.91299819946289,14.652974128723145,16.54424285888672
0.18529081344604492,-1.6068915417566503,8.734213684180526,-16.230056015229795,-0.1488320678472519,-0.02774650976061821,0.965552568435669,-0.00029632076621055603,-0.011573121882975101,0.00023669656366109848,47.23677062988281,14.77991771697998,16.750673294067383
0.19748401641845703,-1.6081609964469206,8.72874611774993,-16.252575148923327,-0.15026314556598663,-0.028208952397108078,0.963496208190918,0.00023010745644569397,-0.011813541874289513,-0.0008075879886746407,47.83373260498047,15.060946464538574,16.91581916809082
0.20912885665893555,-1.609920197045022,8.71951255576572,-16.276499594038587,-0.14763949811458588,-0.028671395033597946,0.9653240442276001,0.00022456422448158264,-0.012567458674311638,-0.0007881280034780502,48.311302185058594,15.28576946258545,17.047935485839844
0.22147202491760254,-1.612406706068024,8.711509281605757,-16.300635775018122,-0.1478780061006546,-0.029133835807442665,0.9662379622459412,-0.00030013546347618103,-0.0112260477617383,0.00026944419369101524,48.693355560302734,15.465627670288086,17.153627395629883
0.23312592506408691,-1.613551829971059,8.70282384230244,-16.32492734280127,-0.14668545126914978,-0.027977731078863144,0.964181661605835,-0.00029290467500686646,-0.010955540463328362,0.00026295147836208344,48.999000549316406,15.609514236450195,17.238182067871094
0.24548602104187012,-1.6145370847588334,8.697440799462823,-16.343278353553803,-0.14907057583332062,-0.028208952397108078,0.965095579624176,0.00023344159126281738,-0.01017226092517376,0.000256615225225687,49.07454299926758,15.365676879882812,17.030200958251953
0.2571289539337158,-1.6143279102155017,8.690146157429249,-16.357490269669306,-0.1478780061006546,-0.02659040503203869,0.9694367051124573,-0.0008107610046863556,-0.009927146136760712,-0.0013074399903416634,49.13497543334961,15.17060661315918,16.863815307617188
0.2694540023803711,-1.6138942999249117,8.687221982690838,-16.370117581897368,-0.149786114692688,-0.02659040503203869,0.9630392789840698,-0.00027193501591682434,-0.008649356663227081,-0.000756644643843174,49.352294921875,15.194024085998535,16.868518829345703
0.28108882904052734,-1.614389275196326,8.683694189984527,-16.38269025261207,-0.1500246226787567,-0.02728406898677349,0.9630392789840698,-0.00026538223028182983,-0.009998809546232224,-0.0017769932746887207,49.52614974975586,15.21275806427002,16.872282028198242
0.2934389114379883,-1.6137771194919637,8.680420821824798,-16.397955725407048,-0.14954760670661926,-0.026821626350283623,0.9639531970024109,0.0002603009343147278,-0.008719293400645256,-0.00017630262300372124,49.49626159667969,15.407218933105469,16.875293731689453
0.3050858974456787,-1.6171662807024652,8.676812774395739,-16.417683019277337,-0.14930908381938934,-0.029827497899532318,0.963496208190918,-0.0002652592957019806,-0.0090284813195467,-0.0006913449615240097,49.47235107421875,15.562787055969238,16.877702713012695
0.3174278736114502,-1.619220673538758,8.672092259905613,-16.43108214288161,-0.14859354496002197,-0.029133835807442665,0.9662379622459412,0.00026042014360427856,-0.008810927160084248,-0.0006746859289705753,49.622196197509766,15.32829475402832,16.879629135131836
0.3290698528289795,-1.6214159390266825,8.66922784932244,-16.439211775541217,-0.14930908381938934,-0.02890261448919773,0.9618968963623047,-0.00026514381170272827,-0.008598615415394306,-0.00013913773000240326,49.74207305908203,15.140701293945312,16.88117027282715
0.341594934463501,-1.6205614183284904,8.663773943270185,-16.447751219551026,-0.14740099012851715,-0.027052847668528557,0.965095579624176,0.0007798224687576294,-0.008391420356929302,-0.00013578496873378754,49.66899871826172,15.170099258422852,16.606779098510742
0.35323500633239746,-1.6205667544137794,8.659564839194164,-16.456391408851093,-0.14811652898788452,-0.02728406898677349,0.9662379622459412,-0.000277545303106308,-0.00766992662101984,0.0009060674346983433,49.610538482666016,15.193617820739746,16.387266159057617
0.36562395095825195,-1.6221166737468433,8.654431098259252,-16.46201094699072,-0.1469239592552185,-0.028208952397108078,0.9666949510574341,-0.0007901489734649658,-0.0069658188149333,-0.00015434622764587402,49.73274612426758,15.032958984375,16.211654663085938
0.3770899772644043,-1.623641406757343,8.653045423631387,-16.464579098118644,-0.1500246226787567,-0.028440173715353012,0.9646386504173279,-0.00025181844830513,-0.007317258045077324,-0.0006699175573885441,49.83051300048828,14.90443229675293,16.0711669921875
0.38950085639953613,-1.627782849271898,8.64935712147958,-16.47378619311982,-0.14740099012851715,-0.030058719217777252,0.965552568435669,-0.0012843310832977295,-0.006102357525378466,-0.001173065509647131,49.739749908447266,15.160557746887207,16.510025024414062
0.40114593505859375,-1.627764706581915,8.645565512716576,-16.485549486417877,-0.1478780061006546,-0.02728406898677349,0.964410126209259,-0.00021480023860931396,-0.007513184100389481,-0.00010621780529618263,49.66714096069336,15.365458488464355,16.861112594604492
0.41348695755004883,-1.6305745823734348,8.642836852143157,-16.501960723446125,-0.1478780061006546,-0.029596278443932533,0.963496208190918,-0.00020962581038475037,-0.0062935627065598965,-0.0006229490973055363,49.60905456542969,15.529378890991211,17.004169464111328
0.4251289367675781,-1.6318126608822054,8.639623248138665,-16.51933160205276,-0.14811652898788452,-0.028208952397108078,0.964867115020752,-0.000723864883184433,-0.007180491462349892,0.0009499327279627323,49.562583923339844,15.660514831542969,17.118616104125977
0.43764591217041016,-1.6301508972014824,8.637452101756248,-16.536417320261545,-0.14859354496002197,-0.02659040503203869,0.9630392789840698,0.0008514486253261566,-0.007007467560470104,0.0004077525809407234,49.86335372924805,15.765423774719238,16.934547424316406
0.4492499828338623,-1.63216014675623,8.634620988345278,-16.554966406500007,-0.14740099012851715,-0.028671395033597946,0.9637247323989868,-0.0007269382476806641,-0.005800032056868076,-0.0006406540051102638,50.10396957397461,15.849350929260254,16.78729248046875
0.4615898132324219,-1.6328542647306323,8.631352742827426,-16.562814293856352,-0.14763949811458588,-0.027977731078863144,0.9646386504173279,-0.00019013136625289917,-0.006698853336274624,-0.00010592583566904068,50.12749099731445,15.378072738647461,16.807300567626953
0.4732348918914795,-1.6327673932621263,8.629984997446131,-16.562831369329277,-0.14907057583332062,-0.028208952397108078,0.9639531970024109,0.0013723187148571014,-0.006537435110658407,-0.00010337354615330696,50.14630889892578,15.001049995422363,16.823307037353516
0.4857368469238281,-1.6349300019080815,8.628157921843153,-16.564520133601565,-0.14835503697395325,-0.02890261448919773,0.964410126209259,-0.0007379092276096344,-0.005860615987330675,-0.0006201732903718948,50.16136169433594,15.058378219604492,16.83611297607422
0.49724698066711426,-1.6351862407236628,8.623359713951219,-16.566295982785768,-0.14668545126914978,-0.02728406898677349,0.9653240442276001,-0.0007201284170150757,-0.00727726798504591,-0.0006052292883396149,50.173404693603516,15.104241371154785,16.846357345581055
0.5096578598022461,-1.6286497496879606,8.606184349509576,-16.579187964844166,-0.118540920317173,-0.019191335886716843,0.9379065632820129,-0.0032992325723171234,0.016785454005002975,-0.0031870980747044086,49.8450927734375,15.499878883361816,16.85455322265625
0.5212948322296143,-1.618622498377853,8.689636454562438,-16.594199013092563,-0.14310775697231293,-0.023122092708945274,0.9637247323989868,0.006646789610385895,0.12802845239639282,0.008314091712236404,49.58244323730469,15.816389083862305,16.86111068725586
0.5336289405822754,-1.624539896798317,8.78320833864432,-16.61165526906382,-0.13833749294281006,-0.030752383172512054,0.9564133882522583,-0.0018220245838165283,0.1519465446472168,0.002920845989137888,49.3723258972168,15.531176567077637,16.866355895996094
0.5452749729156494,-1.6246695636708415,8.94389963792627,-16.615333325931875,-0.15217123925685883,-0.03491435945034027,0.9548140168190002,0.011480789631605148,0.22910286486148834,0.020480560138821602,49.20423126220703,15.303006172180176,16.87055206298828
0.5578038692474365,-1.6238281697424606,9.092746535413774,-16.636973072769766,-0.16028067469596863,-0.024740638211369514,0.965552568435669,-0.0012899115681648254,0.2062220275402069,-0.007721404545009136,49.23872756958008,15.479416847229004,17.011720657348633
0.5693378448486328,-1.6128371147074405,9.252616504448032,-16.647915035820127,-0.16982120275497437,-0.02450941689312458,0.964867115020752,0.010416563600301743,0.20994681119918823,0.010370422154664993,49.26632308959961,15.620545387268066,17.124656677246094
0.5816860198974609,-1.6100366304260296,9.396986212934591,-16.66550960312208,-0.1681516021490097,-0.025434302166104317,0.9639531970024109,0.0013706497848033905,0.19451555609703064,0.003452959004789591,49.28839874267578,15.733448028564453,17.35281753540039
0.593317985534668,-1.6115416199209596,9.524024316402242,-16.684355802589437,-0.16862863302230835,-0.031214823946356773,0.9689797163009644,0.0044533684849739075,0.17373041808605194,0.0059662084095180035,49.306060791015625,15.823770523071289,17.53534698486328
0.6056528091430664,-1.6177030908825458,9.62082261109331,-16.698670171542492,-0.15479488670825958,-0.033527035266160965,0.9459033608436584,0.0027881860733032227,0.14981108903884888,0.007380315568298101,49.65813446044922,15.716554641723633,17.819183349609375
0.6172919273376465,-1.6123377638460892,9.746119016322607,-16.707648455206474,-0.15360231697559357,-0.024278197437524796,0.9523007273674011,0.0033202990889549255,0.19876545667648315,0.005783978383988142,49.93979263305664,15.630782127380371,18.04625129699707
0.6296310424804688,-1.6016312288786827,9.90732514111325,-16.70477636066048,-0.16290432214736938,-0.023122092708945274,0.9557279348373413,0.008109310641884804,0.2402702271938324,0.01270144060254097,49.658203125,15.203217506408691,17.67665672302246
0.6412749290466309,-1.5988735400012901,10.124159741599058,-16.699715190485502,-0.19367249310016632,-0.02774650976061821,0.9701220989227295,0.004916634410619736,0.2796465754508972,0.009508766233921051,49.43293380737305,14.861166000366211,17.380979537963867
0.6537878513336182,-1.5972324803314886,10.321163741603383,-16.690535416241005,-0.1934339702129364,-0.030289940536022186,0.9628108143806458,0.00757719948887825,0.2546372711658478,0.012169329449534416,49.590660095214844,14.766998291015625,17.420063018798828
0.6654360294342041,-1.603898318074598,10.459370058137653,-16.687717963208375,-0.1853245347738266,-0.03491435945034027,0.9660094976425171,0.004916634410619736,0.1886553168296814,0.0009949649684131145,49.71684265136719,14.69166374206543,17.451330184936523
0.6777749061584473,-1.6004652942430204,10.577147278864414,-16.69203122766924,-0.18079279363155365,-0.023584533482789993,0.9559563994407654,0.0011631287634372711,0.166972815990448,-0.004741206299513578,49.47984313964844,14.99034309387207,17.338531494140625
0.6894128322601318,-1.5897977126982241,10.713951699071538,-16.691366991772455,-0.1884251981973648,-0.022659650072455406,0.9557279348373413,0.007548481225967407,0.1850646436214447,0.010690058581531048,49.290245056152344,15.229286193847656,17.248292922973633
0.7017500400543213,-1.5835503307634837,10.849396911633828,-16.70233798312679,-0.18794818222522736,-0.023584533482789993,0.9596120715141296,0.0032915808260440826,0.18932154774665833,0.008029495365917683,48.9695930480957,15.59991455078125,17.45172691345215
0.7133798599243164,-1.5916666232098688,10.971758043067315,-16.728333683107856,-0.14644692838191986,-0.030752383172512054,0.9212275743484497,-0.0014974325895309448,0.2345511019229889,0.00590104516595602,48.71307373046875,15.896417617797852,17.614473342895508
0.725726842880249,-1.590093118379827,11.219817707117485,-16.7425370614869,-0.1578955501317978,-0.03260214999318123,0.9301382899284363,0.013401718810200691,0.4058913588523865,0.019735969603061676,48.50785827636719,15.595199584960938,18.020296096801758
0.7373578548431396,-1.5817673312249931,11.564980463050432,-16.75186539234584,-0.1862785965204239,-0.023584533482789993,0.953443169593811,0.007016368210315704,0.5149744749069214,0.015479070134460926,48.343685150146484,15.354225158691406,18.344953536987305
0.7497189044952393,-1.5713052956855318,11.997371564873614,-16.762547808207742,-0.20941434800624847,-0.028440173715353012,0.9440755248069763,0.016062282025814056,0.6107547283172607,0.033570896834135056,48.212345123291016,15.879339218139648,18.466867446899414
0.7613589763641357,-1.5604280059888749,12.43163584607667,-16.798295310776297,-0.2361277937889099,-0.021503545343875885,0.9625822901725769,0.00967692956328392,0.5894701480865479,0.003772594965994358,48.10727310180664,16.29943084716797,18.56439971923828
0.7738699913024902,-1.5477098735891939,12.841356696270934,-16.822740557815774,-0.243998721241951,-0.025434302166104317,0.9614399075508118,0.017658619210124016,0.5522222518920898,0.012286395765841007,47.685272216796875,15.917610168457031,18.642425537109375
0.7855048179626465,-1.5490688677906148,13.206897321592614,-16.841219634615243,-0.22754132747650146,-0.03283337131142616,0.9390489459037781,0.010209042578935623,0.517102837562561,0.01867174729704857,47.34767150878906,15.612153053283691,18.704845428466797
0.7978308200836182,-1.5462389283184081,13.566614356873213,-16.8677873629393,-0.22634875774383545,-0.027515290305018425,0.9413337707519531,0.008080592378973961,0.5224239826202393,0.013350619934499264,47.24656295776367,15.906208038330078,18.616968154907227
0.8094840049743652,-1.5412406172281339,13.920383151160378,-16.895461581908897,-0.19605761766433716,-0.02659040503203869,0.9118599891662598,0.010209042578935623,0.5649930238723755,0.021864421665668488,47.16567611694336,16.14145278930664,18.546667098999023
0.8218228816986084,-1.5113265230975939,14.433198876686813,-16.906946544998274,-0.2361277937889099,-0.011792266741394997,0.9324230551719666,0.017126506194472313,0.7491039037704468,0.031974561512470245,47.10096740722656,15.97070026397705,18.766050338745117
0.8334619998931885,-1.5002125246575138,15.012918012680814,-16.918991583599592,-0.2511540949344635,-0.0256655216217041,0.9324230551719666,0.014465942978858948,0.8374346494674683,0.03676357492804527,47.04920196533203,15.834098815917969,18.941556930541992
0.8458058834075928,-1.5026433249500977,15.65551245507937,-16.939309688833088,-0.27500540018081665,-0.04300709068775177,0.9365357160568237,0.02510819397866726,0.9092698097229004,0.03942413628101349,46.83881759643555,15.904291152954102,19.08196258544922
0.8574378490447998,-1.4990564084187832,16.273168169270914,-16.97373896489183,-0.2692810893058777,-0.02659040503203869,0.913916289806366,0.013401718810200691,0.8906458616256714,0.011754282750189304,46.670509338378906,15.960445404052734,19.19428825378418
0.8697860240936279,-1.462474875719547,16.958393237374104,-16.978718172796768,-0.31746068596839905,-0.015954243019223213,0.9427046179771423,0.034686218947172165,0.9433250427246094,0.03623146191239357,46.53586196899414,15.646421432495117,19.559772491455078
0.881415843963623,-1.4464676870693873,17.601650208122148,-16.98960720188106,-0.33558768033981323,-0.018960116431117058,0.9449894428253174,0.01499805599451065,0.8741503953933716,0.019735969603061676,46.42814636230469,15.39520263671875,19.852161407470703
0.8939249515533447,-1.4380057230179764,18.2119702991451,-17.00091628759931,-0.3200843334197998,-0.03098360262811184,0.9116314649581909,0.022979743778705597,0.8502053022384644,0.033570896834135056,46.0040283203125,15.553174018859863,20.361696243286133
0.9055650234222412,-1.424796884215112,18.772310480916484,-17.01815568506442,-0.3017188310623169,-0.02335331216454506,0.9013499021530151,0.019254956394433975,0.819342851638794,0.02558920904994011,45.66473388671875,15.679551124572754,20.769325256347656
0.917896032333374,-1.4091167975931727,19.390734591389656,-17.045898205925724,-0.29003170132637024,-0.01849767379462719,0.8853563666343689,0.01499805599451065,0.9326827526092529,0.028781887143850327,45.055355072021484,16.13960075378418,20.95761489868164
0.9295308589935303,-1.3836141518928144,20.163995675252433,-17.066547575333963,-0.32461607456207275,-0.023584533482789993,0.8965518474578857,0.029365094378590584,1.126903772354126,0.059112299233675,44.56785202026367,16.507640838623047,21.108247756958008
0.9419069290161133,-1.3631389523084088,21.01661160443971,-17.09493042642995,-0.3930692970752716,-0.02127232402563095,0.925797164440155,0.021383406594395638,1.1758581399917603,0.04368103668093681,43.670936584472656,16.26365089416504,21.64219093322754
0.953542947769165,-1.3423408128423082,21.84356651291525,-17.12216580574538,-0.3799510896205902,-0.021965987980365753,0.8833000659942627,0.02510819397866726,1.1551058292388916,0.044213149696588516,42.95340347290039,16.068458557128906,22.069345474243164
0.9658849239349365,-1.325068224926698,22.671520336556902,-17.158516072508185,-0.4042794108390808,-0.026821626350283623,0.9036347270011902,0.03202565759420395,1.1567021608352661,0.03463512286543846,42.71731948852539,16.091779708862305,22.54888153076172
0.97751784324646,-1.2985936646517882,23.475701686792327,-17.189595140779037,-0.4479272663593292,-0.01849767379462719,0.9333369731903076,0.029365094378590584,1.100830316543579,0.03250667452812195,42.5284538269043,16.110435485839844,22.932510375976562
0.9900269508361816,-1.2857814037076079,24.2041379466796,-17.222154652552486,-0.4109577536582947,-0.026821626350283623,0.8650217652320862,0.022979743778705597,1.0188850164413452,0.04368103668093681,42.20838928222656,16.304834365844727,22.963788986206055
1.0015268325805664,-1.2569618473915622,24.928976404421572,-17.262092476176843,-0.434332013130188,-0.014104476198554039,0.8821576833724976,0.028300870209932327,1.0119675397872925,0.028249774128198624,41.95233917236328,16.46035385131836,22.988811492919922
1.014035940170288,-1.2300686178648716,25.638474257287694,-17.30299164892688,-0.42383745312690735,-0.012948371469974518,0.8590812683105469,0.0235118567943573,1.0093069076538086,0.03091033548116684,41.40955352783203,16.584768295288086,23.56007957458496
1.0255448818206787,-1.2083678262112718,26.475122911742773,-17.335450415410072,-0.4336164891719818,-0.028440173715353012,0.836918830871582,0.03415410965681076,1.1838399171829224,0.06230497732758522,40.97532653808594,16.68429946899414,24.017093658447266
1.038064956665039,-1.1835627135799012,27.360771343303522,-17.381909362144498,-0.47154003381729126,-0.01803523115813732,0.863879382610321,0.02510819397866726,1.245032787322998,0.045809488743543625,40.45896911621094,16.94339942932129,23.969266891479492
1.049530029296875,-1.135031551484316,28.27307629564754,-17.415599270225588,-0.5097020864486694,-0.016185464337468147,0.8693628311157227,0.04373213276267052,1.2583355903625488,0.06815820932388306,40.04588317871094,17.150678634643555,23.931005477905273
1.0620458126068115,-1.1006601185901077,29.1179980167348,-17.46844615138127,-0.52663654088974,-0.01086738333106041,0.863193929195404,0.02670453116297722,1.1567021608352661,0.040488362312316895,39.715415954589844,17.31650161743164,24.31383514404297
1.0736708641052246,-1.0676227070181676,29.897828035031836,-17.521421098583886,-0.5218662619590759,-0.020347440615296364,0.8451440930366516,0.03841100633144379,1.075821042060852,0.04953427612781525,39.45104217529297,17.449161529541016,24.620098114013672
1.0860028266906738,-1.0338104958622543,30.658355938734413,-17.572948045682462,-0.5354614853858948,-0.019422557204961777,0.836918830871582,0.0405394583940506,1.0433621406555176,0.04474526271224022,38.732627868652344,17.196340560913086,25.14073371887207
1.097640037536621,-1.0028197931637908,31.385894028745835,-17.62609204006704,-0.5345074534416199,-0.014104476198554039,0.8300644755363464,0.03362199664115906,1.0124995708465576,0.03303878381848335,38.15789794921875,16.99408531188965,25.557241439819336
1.1100029945373535,-0.9695933774509117,32.10683415601902,-17.67554090211064,-0.5159034132957458,-0.021503545343875885,0.7903090715408325,0.04266791045665741,1.0130317211151123,0.05219483748078346,37.52914047241211,17.191226959228516,26.028261184692383
1.121635913848877,-0.8996141407010171,32.89689921278732,-17.715164537033175,-0.5667067170143127,0.006920419167727232,0.835319459438324,0.04479635879397392,1.1077477931976318,0.042084697633981705,37.0261344909668,17.348941802978516,26.40507698059082
1.133971929550171,-0.84061299229889,33.70403291229148,-17.750157303698444,-0.5545425415039062,-0.0036995348054915667,0.7809414267539978,0.041603684425354004,1.119454264640808,0.05591962859034538,36.11681365966797,17.116165161132812,26.568716049194336
1.145622968673706,-0.7951796945178758,34.58140486212547,-17.78900912724477,-0.5850721597671509,-0.02335331216454506,0.7829977869987488,0.053842272609472275,1.2051243782043457,0.06975454837083817,35.38935852050781,16.92994499206543,26.699626922607422
1.1581268310546875,-0.7457530305890786,35.42101611113304,-17.840821234741195,-0.6041532158851624,-0.009711278602480888,0.8035608530044556,0.04639269411563873,1.1710691452026367,0.04687371104955673,34.807395935058594,17.139915466308594,26.942169189453125
1.1697659492492676,-0.6787219809613966,36.27260068175565,-17.87645433164115,-0.6322977542877197,-0.01526058092713356,0.785282552242279,0.06182396039366722,1.1567021608352661,0.0756077840924263,34.34182357788086,17.307891845703125,27.13620376586914
1.1820969581604004,-0.6162391436298555,37.055333530449936,-17.93503174151047,-0.6697442531585693,-0.004393197596073151,0.8197829127311707,0.04798903316259384,1.0689035654067993,0.052726950496435165,33.63142395019531,17.801219940185547,27.15361785888672
1.1937248706817627,-0.5417258885706889,37.74360144782837,-17.991486670095213,-0.6337288022041321,-0.005780523177236319,0.7553517818450928,0.05650283396244049,0.9300222396850586,0.06762609630823135,33.06310272216797,18.19588279724121,27.16754913330078
1.2060658931732178,-0.4896495381307499,38.40148868377858,-18.066524835864264,-0.6170329451560974,-0.02011621929705143,0.7407291531562805,0.059163399040699005,0.9103339910507202,0.06496553868055344,32.60844802856445,18.33213996887207,27.45431900024414
1.217721939086914,-0.4217719719328094,39.09017324269638,-18.138689199540035,-0.6167944073677063,-0.002774651162326336,0.7293052077293396,0.055438607931137085,0.9640774726867676,0.05113061144948006,32.24472427368164,18.441144943237305,27.683734893798828
1.2300620079040527,-0.3357526762473746,39.89864565927787,-18.18074096671251,-0.646369993686676,-0.018266452476382256,0.7295336723327637,0.07938367128372192,1.1210505962371826,0.09689228981733322,31.615800857543945,18.169401168823242,27.867267608642578
1.2416980266571045,-0.23968337084807428,40.72300851096338,-18.215110478616015,-0.7277029156684875,0.0004613612836692482,0.784368634223938,0.06608086079359055,1.1311607360839844,0.07826834917068481,31.112661361694336,17.952007293701172,28.01409339904785
1.2540409564971924,-0.1350963793267317,41.45733922410438,-18.236405300900824,-0.6883482933044434,-0.006242964882403612,0.7105699181556702,0.0745946615934372,0.9853619337081909,0.09795651584863663,30.372207641601562,17.957565307617188,28.544992446899414
1.2656819820404053,-0.028048378599962315,42.143079971489904,-18.264197340633604,-0.7024205327033997,-0.00393075542524457,0.7231362462043762,0.08310846239328384,0.9332149028778076,0.08678214997053146,29.779844284057617,17.962011337280273,28.969711303710938
1.278188943862915,0.09562012707987942,42.784591828905015,-18.294548993757846,-0.7553704380989075,0.009227225556969643,0.7553517818450928,0.08204423636198044,0.8645724058151245,0.08199314028024673,28.79903793334961,18.32451629638672,29.03386116027832
1.289820909500122,0.21854977838027637,43.39407692930193,-18.317800665239865,-0.7164928317070007,-0.009942499920725822,0.6836093664169312,0.08630113303661346,0.794865608215332,0.12030523270368576,28.014392852783203,18.614519119262695,29.085182189941406
1.3021528720855713,0.3368822187813655,43.94021885533615,-18.348606525943914,-0.7157772779464722,-0.00023122092534322292,0.7062287926673889,0.08098001778125763,0.7485718727111816,0.09848862886428833,27.555648803710938,18.48757553100586,29.26405143737793
1.313788890838623,0.4683725383708081,44.460788553117844,-18.36758762164738,-0.6735605001449585,-0.002080988371744752,0.6443109512329102,0.09428282082080841,0.7006816864013672,0.1091308742761612,27.18865394592285,18.38602066040039,29.407146453857422
1.326153039932251,0.6483022927497167,45.08868101332794,-18.355723583059067,-0.7427292466163635,0.00853518396615982,0.7034870386123657,0.11556732654571533,0.8677650690078735,0.13307595252990723,26.895057678222656,18.66372299194336,29.38381004333496
1.3377819061279297,0.8292986238562052,45.69478517008571,-18.335863100499964,-0.7653879523277283,0.020991938188672066,0.6952617764472961,0.09002592414617538,0.8204070329666138,0.1293511539697647,26.660181045532227,18.88588523864746,29.365140914916992
1.3501179218292236,1.0038083563244442,46.32281764917379,-18.29636411652978,-0.7534623146057129,-0.01641668565571308,0.6477381587028503,0.11609944701194763,0.8214712142944336,0.178305521607399,25.965364456176758,18.345720291137695,29.763643264770508
1.361750841140747,1.16665191224689,46.82732957221678,-18.266978935173093,-0.7482150197029114,0.00853518396615982,0.6708145141601562,0.09534704685211182,0.6948285102844238,0.1293511539697647,25.40951156616211,17.91358757019043,30.08244514465332
1.37424898147583,1.3896734901819678,47.372569913280564,-18.180320910078557,-0.7839919924736023,0.007381780538707972,0.6708145141601562,0.1288701444864273,0.7320762872695923,0.1804339587688446,24.62688446044922,17.567882537841797,30.061861038208008
1.3858709335327148,1.617657627435883,47.863206307024676,-18.078998468836,-0.8276398181915283,0.015224922448396683,0.6986889839172363,0.11822788417339325,0.6575806140899658,0.18256241083145142,24.000783920288086,17.291318893432617,30.045392990112305
1.3982009887695312,1.840167794956856,48.24927250457589,-17.984045178994485,-0.7510771751403809,0.022606702521443367,0.629916787147522,0.10013605654239655,0.5133781433105469,0.17564494907855988,23.330930709838867,17.429014205932617,29.894407272338867
1.4098389148712158,2.0973811931553117,48.652653231673085,-17.868751585804667,-0.7372434139251709,0.011303351260721684,0.5986151695251465,0.13472338020801544,0.5240203142166138,0.2139570564031601,22.7950496673584,17.53917121887207,29.773618698120117
1.422170877456665,2.3517427739318757,49.03303671183485,-17.74683953930911,-0.7959176301956177,0.03690890222787857,0.6625893115997314,0.11450310051441193,0.5250846147537231,0.1788376271724701,22.197372436523438,17.08887481689453,30.090425491333008
1.433804988861084,2.639050199056819,49.49071744283365,-17.571961083347396,-0.8107054233551025,0.012226074002683163,0.630602240562439,0.13951238989830017,0.5953234434127808,0.24535170197486877,21.71923065185547,16.7286376953125,30.343870162963867
1.4463210105895996,2.9275298553980664,49.865001564066596,-17.411757288817455,-0.8097513318061829,0.033910054713487625,0.6251187324523926,0.11929211020469666,0.4819834530353546,0.22193874418735504,21.16774559020996,17.33781623840332,30.546627044677734
1.4577889442443848,3.226637712974676,50.18039920937027,-17.25179084336117,-0.7699196934700012,0.03690890222787857,0.6047840714454651,0.11929211020469666,0.42238685488700867,0.2315167635679245,20.7265567779541,17.825159072875977,30.708831787109375
1.4702949523925781,3.5458835295454225,50.49869968507121,-17.065565735640774,-0.8076047301292419,0.02998848259449005,0.6043271422386169,0.13525548577308655,0.39790967106819153,0.25971874594688416,20.711549758911133,17.676612854003906,30.83859634399414
1.4819579124450684,3.8654106645326087,50.75926457171803,-16.869237070590636,-0.8266857862472534,0.05397927016019821,0.6363142132759094,0.11237464845180511,0.34842318296432495,0.24003057181835175,20.69954490661621,17.557775497436523,30.942407608032227
1.494377851486206,4.187702532029769,51.058331234716206,-16.663137819932793,-0.8107054233551025,0.029065759852528572,0.591989278793335,0.11982423067092896,0.3707719147205353,0.2825995683670044,20.35199737548828,17.821653366088867,31.025455474853516
1.5058510303497314,4.532214712444273,51.287497741748474,-16.44385118153495,-0.8460053205490112,0.050288379192352295,0.6255756616592407,0.11609944701194763,0.2909550368785858,0.2815353572368622,20.073959350585938,18.03275489807129,31.091894149780273
1.5183749198913574,4.861755545084933,51.40514092001277,-16.24106969526644,-0.7992568016052246,0.062283772975206375,0.6088967323303223,0.09109015017747879,0.16005535423755646,0.2719573378562927,19.68255615234375,18.38111114501953,31.007232666015625
1.5301268100738525,5.207589367103835,51.53612687282069,-16.029021349841518,-0.8190533518791199,0.0410611517727375,0.5835355520248413,0.11450310051441193,0.13025705516338348,0.3171868920326233,19.369434356689453,18.6597957611084,30.939502716064453
1.5422909259796143,5.526399972558404,51.56318125212311,-15.84160949675283,-0.8627012372016907,0.07128031551837921,0.6532216668128967,0.08576902747154236,0.03234834223985672,0.27834266424179077,18.94996452331543,18.52379608154297,30.747507095336914
1.5539188385009766,5.850597462833998,51.57359387551279,-15.633386057263113,-0.8178607821464539,0.04636680707335472,0.580565333366394,0.08842958509922028,-0.04161530360579491,0.32995760440826416,18.614389419555664,18.414997100830078,30.593910217285156
1.5662579536437988,6.177308462724157,51.47887964229223,-15.431663250315957,-0.809989869594574,0.0756632462143898,0.6011283993721008,0.07725521922111511,-0.15601949393749237,0.30654463171958923,18.51490020751953,18.507431030273438,30.608844757080078
1.577894926071167,6.495517584644943,51.333659575254,-15.232371990713323,-0.81118243932724,0.08788932114839554,0.5961018800735474,0.059163399040699005,-0.23796483874320984,0.3017556369304657,18.4353084564209,18.581377029418945,30.620792388916016
1.5903949737548828,6.814380270291934,51.20814118887668,-15.025924400407812,-0.8049811124801636,0.0724337175488472,0.5757672786712646,0.06501663476228714,-0.23317581415176392,0.3331502676010132,18.202665328979492,18.640535354614258,30.630352020263672
1.602180004119873,7.1022005999348625,50.997593777521864,-14.849587699058299,-0.8622242212295532,0.11141874641180038,0.6612184047698975,0.03415410965681076,-0.3039467930793762,0.2879207134246826,18.016550064086914,18.6878604888916,30.637998580932617
1.614344835281372,7.334659258147076,50.74483238200179,-14.696215801245664,-0.7956790924072266,0.07704733312129974,0.5746248364448547,0.008612705394625664,-0.4242042303085327,0.30920520424842834,18.03662872314453,18.72572135925293,31.19536590576172
1.6260418891906738,7.580569120155984,50.41648128293718,-14.531674836592764,-0.7923399209976196,0.11464827507734299,0.6146087050437927,-0.0020295456051826477,-0.47954392433166504,0.2857922613620758,18.052692413330078,18.756010055541992,31.641260147094727
1.6383788585662842,7.749888655906954,50.03023067027837,-14.430166272695326,-0.792578399181366,0.11741644144058228,0.6189497709274292,-0.04779122397303581,-0.5737278461456299,0.2480122447013855,18.065542221069336,18.780241012573242,31.171100616455078
1.6500139236450195,7.917429781152782,49.64465283125281,-14.326948453958094,-0.7796987295150757,0.1070358157157898,0.6047840714454651,-0.04779122397303581,-0.58809494972229,0.27248942852020264,18.075822830200195,18.799625396728516,30.794973373413086
1.662341833114624,8.00942645285733,49.16520770246377,-14.288971748399177,-0.7663419842720032,0.14832764863967896,0.6331154704093933,-0.1153695285320282,-0.6897283792495728,0.1788376271724701,18.253019332885742,18.815134048461914,30.63188362121582
1.673969030380249,8.074883570768147,48.77278942898444,-14.260595727492358,-0.7594251036643982,0.11326419562101364,0.5949594974517822,-0.11856219172477722,-0.6226822137832642,0.20278269052505493,18.394777297973633,18.827539443969727,30.50141143798828
1.6864688396453857,8.090225883191287,48.31789883026159,-14.275893643685896,-0.8040270209312439,0.15340262651443481,0.6616753935813904,-0.1664523333311081,-0.6886641979217529,0.13520440459251404,18.846126556396484,18.837465286254883,30.25922203063965
1.6981070041656494,8.021526132972008,47.801430661076495,-14.34762172902843,-0.7141076922416687,0.13494817912578583,0.6066119074821472,-0.22392047941684723,-0.7738021612167358,0.10061707347631454,19.207204818725586,18.84540557861328,30.06546974182129
1.710433006286621,7.9040323650958015,47.349828798439006,-14.455147689584647,-0.726987361907959,0.12041529268026352,0.591303825378418,-0.23988385498523712,-0.7370864152908325,0.06762609630823135,19.496068954467773,18.672283172607422,30.048280715942383
1.7222719192504883,7.728300135487836,46.83648885589377,-14.609176993104898,-0.8347952365875244,0.16124576330184937,0.7222223281860352,-0.2845813035964966,-0.7961509227752686,0.0027083689346909523,19.72715950012207,18.53378677368164,30.034528732299805
1.7344729900360107,7.414569056341641,46.196390847636856,-14.850482453839572,-0.7243637442588806,0.10657445341348648,0.6276320219039917,-0.36599451303482056,-1.01006019115448,-0.016447681933641434,20.081003189086914,18.602462768554688,30.023527145385742
1.7459900379180908,7.096203266956768,45.501456665628496,-15.106571859032737,-0.6721293926239014,0.1351788491010666,0.6411122679710388,-0.3904716968536377,-1.0292161703109741,-0.07817274332046509,20.364078521728516,18.65740394592285,30.014726638793945
1.758495807647705,6.706856017283007,44.83919810860947,-15.418897626757202,-0.7517927289009094,0.14717425405979156,0.7000598907470703,-0.4399581551551819,-1.0297483205795288,-0.15266849100589752,20.928482055664062,18.701356887817383,30.007686614990234
1.7701330184936523,6.239049530839664,44.16367532422229,-15.768357425451734,-0.7195934653282166,0.09965403378009796,0.6742417216300964,-0.48305925726890564,-1.0707210302352905,-0.1468152552843094,21.3800048828125,18.73651885986328,30.00205421447754
1.7824618816375732,5.689539467770982,43.3856109098257,-16.178908143630153,-0.6895408630371094,0.11234147101640701,0.7354741096496582,-0.5437201261520386,-1.1393635272979736,-0.23887072503566742,21.910194396972656,18.40570068359375,30.135360717773438
1.7940900325775146,5.082921339278177,42.646150724618025,-16.62462921339226,-0.6928800344467163,0.07151100039482117,0.6881789565086365,-0.5586193203926086,-1.1712902784347534,-0.2654763460159302,22.334346771240234,18.14104652404785,30.242006301879883
1.8064148426055908,4.462660761691918,41.87019342358039,-17.07915951963639,-0.7308036088943481,0.07958482205867767,0.7747725248336792,-0.576711118221283,-1.1909784078598022,-0.3037884533405304,23.34955596923828,18.108797073364258,30.189510345458984
1.8180530071258545,3.7718392073375497,40.9730275855317,-17.57800067812098,-0.6685516834259033,0.05259518697857857,0.748040497303009,-0.6224728226661682,-1.3495479822158813,-0.3426326811313629,24.16172218322754,18.082996368408203,30.147512435913086
1.8305609226226807,3.0508975859604828,40.072525200073464,-18.09661694180005,-0.6311051845550537,0.004613612778484821,0.6982320547103882,-0.5990598201751709,-1.391584873199463,-0.3527428209781647,24.81145668029785,17.70340919494629,30.251728057861328
1.8421928882598877,2.3481584187215,39.154667303934225,-18.606184912376143,-0.6606807708740234,0.016609005630016327,0.7907660603523254,-0.6006562113761902,-1.3724287748336792,-0.40063294768333435,25.33124351501465,17.39974021911621,30.335100173950195
1.8545918464660645,1.6609273027147369,38.28036552413216,-19.077280134904846,-0.6640199422836304,-0.026359185576438904,0.7670042514801025,-0.5735184550285339,-1.360722303390503,-0.3538070321083069,25.916044235229492,16.977331161499023,29.71273422241211
1.866055965423584,0.987349841580535,37.31078260540841,-19.545091743990067,-0.6308666467666626,-0.04370075464248657,0.7889382243156433,-0.5469127893447876,-1.457034707069397,-0.36498141288757324,26.38388442993164,16.639404296875,29.214841842651367
1.878558874130249,0.3435409862114668,36.29087143778543,-19.99664921039795,-0.6008140444755554,-0.05896133556962013,0.8031039237976074,-0.5096649527549744,-1.500667929649353,-0.3692382872104645,26.58918571472168,16.18958854675293,28.8165283203125
1.8901879787445068,-0.22191635460979184,35.30488240467531,-20.383656266507337,-0.6122626662254333,-0.07283458858728409,0.7834547162055969,-0.4420866072177887,-1.5113102197647095,-0.3218802809715271,26.753427505493164,15.82973575592041,28.49787712097168
1.9025168418884277,-0.7340218605244644,34.249334725057786,-20.739104433556676,-0.6079694032669067,-0.07907755672931671,0.8650217652320862,-0.39792126417160034,-1.553347110748291,-0.3186876177787781,27.391735076904297,15.541853904724121,28.105144500732422
1.9141499996185303,-1.220952556478726,33.18101117659776,-21.07145802347491,-0.5616979002952576,-0.12092854082584381,0.8051602244377136,-0.3266181945800781,-1.5953840017318726,-0.27611860632896423,27.902379989624023,15.311548233032227,27.790958404541016
1.9265899658203125,-1.5866933917204533,32.096394211872656,-21.336293485900278,-0.5516803860664368,-0.09965621680021286,0.8419453501701355,-0.24254442751407623,-1.5991088151931763,-0.2516414225101471,28.817811965942383,15.306777000427246,27.67742156982422
1.938269853591919,-1.887437186324987,30.970796112127477,-21.56990815362952,-0.5588357448577881,-0.09572546184062958,0.8931246995925903,-0.18933317065238953,-1.6544485092163086,-0.24951297044754028,29.55015754699707,15.302960395812988,27.586591720581055
1.9506030082702637,-2.128382781467765,29.842308842363387,-21.74644976065413,-0.49276769161224365,-0.1107548177242279,0.8026469945907593,-0.10579149425029755,-1.6773293018341064,-0.18832002580165863,30.473976135253906,14.940959930419922,27.513927459716797
1.9622349739074707,-2.294446451418754,28.718206554046443,-21.892352846609356,-0.48036500811576843,-0.0924883708357811,0.8693628311157227,-0.052048128098249435,-1.6257144212722778,-0.1989622861146927,31.213031768798828,14.651359558105469,27.45579719543457
1.9746108055114746,-2.4128883349291224,27.644207118386127,-21.988296513880528,-0.4438725411891937,-0.11214214563369751,0.8227531313896179,0.025640306994318962,-1.5682462453842163,-0.13723722100257874,32.14221954345703,14.240205764770508,27.409292221069336
1.9862430095672607,-2.430525804356799,26.635876536500902,-22.02118558228143,-0.46056845784187317,-0.08393319696187973,0.887869656085968,0.08736535906791687,-1.4772549867630005,-0.11116372048854828,32.88557052612305,13.911282539367676,27.372089385986328
1.9985718727111816,-2.3904708002994943,25.63141867187507,-22.023412223950853,-0.48656636476516724,-0.07029116153717041,0.9324230551719666,0.1299343705177307,-1.507053256034851,-0.09360400587320328,33.64922332763672,14.007091522216797,26.515451431274414
2.010206937789917,-2.326689640056269,24.555581915328023,-22.007330543550058,-0.4326624274253845,-0.07722778618335724,0.8581673502922058,0.17303547263145447,-1.6193290948867798,-0.06114513427019119,34.2601432800293,14.083738327026367,25.830141067504883
2.022538900375366,-2.213093775762025,23.438004165215734,-21.97572555071312,-0.38042810559272766,-0.0506373830139637,0.9072903990745544,0.1948520988225937,-1.5959160327911377,-0.06646626442670822,35.25579833984375,14.145055770874023,25.41970443725586
2.034173011779785,-2.0470732213801712,22.41997642225638,-21.89524030908098,-0.42479151487350464,-0.03722656890749931,0.9365357160568237,0.2310357540845871,-1.5331268310546875,-0.015383456833660603,36.05232238769531,14.194109916687012,25.09135627746582
2.0466818809509277,-1.8762546725497953,21.300143002170696,-21.794378905607402,-0.38018959760665894,-0.03098360262811184,0.9004359841346741,0.22837518155574799,-1.6698797941207886,0.00057991873472929,36.85851287841797,14.053879737854004,24.828678131103516
2.058320999145508,-1.6998671716683316,20.152328004602758,-21.692284652988636,-0.3239005506038666,-0.017110347747802734,0.8711906671524048,0.22198984026908875,-1.6709439754486084,-0.007933881133794785,37.50346374511719,13.941695213317871,24.618534088134766
2.0706498622894287,-1.5006506172597465,19.087501512997772,-21.565465115574426,-0.30648910999298096,-0.01549180131405592,0.8444586396217346,0.2491275817155838,-1.5698425769805908,0.031974561512470245,38.52634048461914,14.031421661376953,24.174795150756836
2.0822808742523193,-1.3181350493106063,18.05194408953358,-21.44290078601313,-0.31149786710739136,-0.011329825036227703,0.8990651369094849,0.22571462392807007,-1.5331268310546875,0.028249774128198624,39.34463882446289,14.103202819824219,23.81980323791504
2.094655990600586,-1.1323412040032714,17.11504533353564,-21.288644378702976,-0.3329640328884125,-0.015029359608888626,0.9468172788619995,0.2310357540845871,-1.426172137260437,0.0766720101237297,40.168251037597656,13.98115348815918,23.122371673583984
2.1062889099121094,-0.9579381932408138,16.095480798013032,-21.1401560661469,-0.3176991939544678,-0.016185464337468147,0.9758340716362,0.22518250346183777,-1.5357873439788818,0.07028666138648987,40.82714080810547,13.883514404296875,22.56442642211914
2.1186399459838867,-0.7836775492338687,14.952952366862688,-21.00345324500368,-0.254016250371933,0.004844293463975191,0.9513868093490601,0.20070533454418182,-1.657109022140503,0.04634159803390503,41.01630783081055,13.805402755737305,21.842445373535156
2.130280017852783,-0.5973969995873175,13.915823146115748,-20.835995789575186,-0.24590681493282318,-0.000693662790581584,0.9639531970024109,0.22198984026908875,-1.516099214553833,0.10540609061717987,41.16764450073242,13.742914199829102,21.264862060546875
2.1426520347595215,-0.4322484949438305,12.820749161771358,-20.670377362580716,-0.23111902177333832,0.006920419167727232,0.9539000988006592,0.19059519469738007,-1.6118794679641724,0.08891060203313828,41.79562759399414,13.333975791931152,20.80279541015625
2.1542840003967285,-0.27293579997673756,11.693852472310233,-20.501273831562248,-0.17602252960205078,0.011072671040892601,0.9050055742263794,0.1794208288192749,-1.6140079498291016,0.08944271504878998,42.298011779785156,13.00682544708252,20.433141708374023
2.166672945022583,-0.0860242915952867,10.662159228368978,-20.303585958867277,-0.18866372108459473,0.03690890222787857,0.9200851917266846,0.1799529492855072,-1.52567720413208,0.10593820363283157,43.20683670043945,12.745104789733887,19.861793518066406
2.1783180236816406,0.06662848201326116,9.548025601145667,-20.12307771948218,-0.15646447241306305,0.04406000301241875,0.9020353555679321,0.1272737979888916,-1.6267786026000977,0.076139897108078,43.933895111083984,12.535728454589844,19.404714584350586
2.1906440258026123,0.19548751124559607,8.519781602735268,-19.935244102212245,-0.13237467408180237,0.028604399412870407,0.9088897109031677,0.12195268273353577,-1.484704613685608,0.1091308742761612,44.34657287597656,12.547700881958008,18.763425827026367
2.2022719383239746,0.31192425398688933,7.514211271048372,-19.764467174847123,-0.13523682951927185,0.04728953167796135,0.927853524684906,0.08257634937763214,-1.4831082820892334,0.07986468821763992,44.67671203613281,12.557278633117676,18.250394821166992
2.2147908210754395,0.4095017238518666,6.492054678735746,-19.59092060577356,-0.11353214830160141,0.06089968979358673,0.9315091371536255,0.036282557994127274,-1.4990715980529785,0.06975454837083817,45.27876663208008,12.20599365234375,17.702157974243164
2.2264318466186523,0.48027755809414036,5.564885954097311,-19.401087450624104,-0.1326131820678711,0.06020764634013176,0.9660094976425171,0.007016368210315704,-1.4139336347579956,0.09103904664516449,45.76041030883789,11.924965858459473,17.263568878173828
2.2387659549713135,0.5131046745448381,4.504993420394011,-19.23595055196612,-0.09206598997116089,0.07912345975637436,0.9692081809043884,-0.07652530074119568,-1.5693104267120361,0.04847005009651184,46.48366928100586,11.879616737365723,16.774885177612305
2.2504420280456543,0.5096463043081374,3.438505485273417,-19.064651115129493,-0.055334996432065964,0.07543256878852844,0.9712645411491394,-0.12494754791259766,-1.5458974838256836,0.06336919963359833,47.06227493286133,11.843338012695312,16.38393783569336
2.262777805328369,0.4510328758631143,2.3158753161660233,-18.918848774464525,-0.012164158746600151,0.07174167782068253,0.9682942628860474,-0.2010396420955658,-1.5847417116165161,0.04687371104955673,47.3561897277832,12.173261642456055,15.657742500305176
2.274406909942627,0.3466929050700161,1.2136034863752039,-18.787760368819054,0.004629017319530249,0.07035759091377258,0.9493305087089539,-0.269150048494339,-1.5581361055374146,0.03782779723405838,47.59132385253906,12.437200546264648,15.076786041259766
2.2867748737335205,0.198037039435862,0.1382510862898446,-18.656053831053697,0.029162809252738953,0.06435989588499069,0.9404198527336121,-0.32821452617645264,-1.506521224975586,0.037295687943696976,48.117374420166016,12.28940486907959,14.47420883178711
2.298405885696411,-0.00972323535463266,-0.9423732593394125,-18.5453569551753,0.05554820969700813,0.0583622008562088,0.9296813011169434,-0.4106919765472412,-1.497475266456604,0.0053689321503043175,48.53821563720703,12.171168327331543,13.992146492004395
2.321669816970825,-0.2555916284769745,-1.9633099158332505,-18.4304014563494,0.08702553063631058,0.05051906034350395,0.9424761533737183,-0.4580499827861786,-1.38573157787323,0.014946958981454372,49.38180160522461,12.256052017211914,13.33087158203125
2.3329739570617676,-0.5596892860878225,-2.9457628319440037,-18.33718986474624,0.11711414158344269,0.0346020944416523,0.9628108143806458,-0.5224356651306152,-1.3085752725601196,-0.010062331333756447,50.056671142578125,12.323959350585938,12.801852226257324
2.34425687789917,-0.9163860970948066,-3.8391784692515283,-18.2510099528936,0.1212802603840828,0.011072671040892601,0.9212275743484497,-0.5687294006347656,-1.1877857446670532,-0.02283303439617157,50.25862121582031,12.01933765411377,11.96519947052002
2.3555710315704346,-1.3181368635796045,-4.675909512863471,-18.17565076823356,0.142573744058609,-0.014104476198554039,0.9157441258430481,-0.6006562113761902,-1.0888128280639648,-0.037200070917606354,50.42018127441406,11.775640487670898,11.295877456665039
2.3668529987335205,-1.763262532945157,-5.416389530691594,-18.11448983931068,0.14974871277809143,-0.04809395223855972,0.9712645411491394,-0.6214085817337036,-0.9712159633636475,-0.07231950014829636,51.05634307861328,11.221735954284668,10.760419845581055
2.3781368732452393,-2.231322056552908,-6.124396267884538,-18.059397533465358,0.21524931490421295,-0.08809517323970795,0.965552568435669,-0.6027846336364746,-0.8312703371047974,-0.07498006522655487,51.56527328491211,10.77861213684082,10.332053184509277
2.389425039291382,-2.692660140408838,-6.628481304104404,-17.99949335934976,0.16525591909885406,-0.10728650540113449,0.9404198527336121,-0.5671330690383911,-0.6253427267074585,-0.08668654412031174,51.63447570800781,10.24463939666748,9.851547241210938
2.400753974914551,-3.140243930823654,-7.074839289006615,-17.939467949376397,0.1701163947582245,-0.13549545407295227,0.9495590329170227,-0.513921856880188,-0.547654390335083,-0.09360400587320328,51.68983840942383,9.817461013793945,9.467143058776855
2.4120538234710693,-3.5469210779690297,-7.450428403257854,-17.894871936738088,0.18631795048713684,-0.15769267082214355,0.9817745685577393,-0.4410223960876465,-0.4369749128818512,-0.1154206171631813,51.903099060058594,9.655192375183105,9.021806716918945
2.4233508110046387,-3.883805217741099,-7.739912310850504,-17.851928829878926,0.17567121982574463,-0.1532994657754898,0.964867115020752,-0.353755921125412,-0.3321487605571747,-0.12287019193172455,52.073707580566406,9.52537727355957,8.66553783416748
2.4346368312835693,-4.176274344887869,-7.987807196586947,-17.81214639305819,0.15460918843746185,-0.16370441019535065,0.9374496340751648,-0.2744711637496948,-0.3034146726131439,-0.1489437073469162,52.041221618652344,8.883105278015137,8.24271011352539
2.4459218978881836,-4.409095003126093,-8.244967233932512,-17.78860785363103,0.18770666420459747,-0.17988987267017365,0.965552568435669,-0.1840120404958725,-0.27308425307273865,-0.1814025640487671,52.015235900878906,8.369287490844727,7.90444803237915
2.4571988582611084,-4.5607230682662605,-8.479929156475535,-17.7943315521555,0.20228806138038635,-0.17711523175239563,0.9993674159049988,-0.09195657074451447,-0.2326437085866928,-0.2154577672481537,52.16341781616211,8.676127433776855,7.633838176727295
2.468477964401245,-4.617858881333887,-8.566546200435052,-17.79473282576924,0.10924481600522995,-0.15584290027618408,1.0130761861801147,0.013401718810200691,-0.17464344203472137,-0.2181183397769928,52.28196334838867,8.921599388122559,7.4173502922058105
2.4797539710998535,-4.6261323748528875,-8.819128303489416,-17.79377147664356,0.10392144322395325,-0.15422435104846954,0.9902282953262329,0.08576902747154236,-0.424736350774765,-0.2505772113800049,52.54576873779297,8.579556465148926,7.106347560882568
2.491117000579834,-4.580408527227884,-9.342405317503372,-17.830425686824434,0.1971961408853531,-0.14358818531036377,0.964410126209259,0.13365915417671204,-0.6652512550354004,-0.3224124014377594,52.756813049316406,8.30592155456543,6.857545375823975
2.5031139850616455,-4.451446444848403,-9.81228562013346,-17.864839594957544,0.21409206092357635,-0.12879005074501038,0.9680657982826233,0.22837518155574799,-0.5763883590698242,-0.31443071365356445,52.75667953491211,8.266487121582031,6.796316146850586
2.5146679878234863,-4.273368045260538,-10.296700565317336,-17.902767635418623,0.22821056842803955,-0.11399191617965698,0.902492344379425,0.2879717946052551,-0.5620213747024536,-0.31549492478370667,52.75657272338867,8.234939575195312,6.747332572937012
2.527012825012207,-4.022755598008077,-10.63251193850289,-17.92646326919669,0.2467266321182251,-0.09873133152723312,0.9454463720321655,0.36459600925445557,-0.3475800156593323,-0.28197184205055237,52.75648498535156,8.209701538085938,6.845958232879639
2.5386509895324707,-3.726480347946318,-10.842708448889095,-17.94812862924397,0.2420976161956787,-0.08231464773416519,0.9678373336791992,0.4066329002380371,-0.19113892316818237,-0.2734580338001251,52.75641632080078,8.1895112991333,6.924859046936035
2.5509138107299805,-3.3978214634822366,-10.989264671683705,-17.96509994178416,0.24834679067134857,-0.0689038336277008,0.9082043170928955,0.44600921869277954,-0.06875304132699966,-0.25749465823173523,52.5873908996582,8.173358917236328,6.7123541831970215
2.562592029571533,-3.0057440591311746,-10.983854308087407,-17.96145774340925,0.24533793330192566,-0.02890261448919773,0.9189428091049194,0.4784680902957916,0.1350460648536682,-0.22769635915756226,52.452171325683594,8.160436630249023,6.5423502922058105
2.574932813644409,-2.6131795769149266,-10.828569957307169,-17.945306053569464,0.21386060118675232,-0.023584533482789993,0.9454463720321655,0.4901745617389679,0.288826584815979,-0.19204482436180115,52.51296615600586,8.688519477844238,6.268535137176514
2.5865588188171387,-2.2282156011410215,-10.620367862158608,-17.924876957761956,0.19465018808841705,-0.01641668565571308,0.951843798160553,0.48325711488723755,0.33458825945854187,-0.17608144879341125,52.56159973144531,9.11098575592041,6.049483299255371
2.599071979522705,-1.820785639083064,-10.329757827126551,-17.886014888931875,0.14396244287490845,0.018223769962787628,0.9623538255691528,0.4784680902957916,0.36704713106155396,-0.14521890878677368,52.76947784423828,9.628433227539062,5.874241828918457
2.610534906387329,-1.4414915740939158,-10.195511312763598,-17.839750602588794,0.1830776482820511,0.025605550035834312,0.9486451148986816,0.43589910864830017,0.21433083713054657,-0.12712709605693817,52.93578338623047,10.042390823364258,5.734048366546631
2.6230499744415283,-1.066902762390966,-10.120732694183005,-17.79289891997709,0.23006217181682587,0.05328722670674324,0.9283104538917542,0.3869447410106659,0.21539506316184998,-0.11595273017883301,52.561912536621094,10.373557090759277,5.621893882751465
2.63468599319458,-0.712856971916446,-9.883588526200162,-17.71424587658981,0.19349293410778046,0.0632064938545227,0.9114030003547668,0.35980698466300964,0.39844176173210144,-0.06114513427019119,52.262813568115234,10.638489723205566,5.532170295715332
2.6470229625701904,-0.4208218552666636,-9.549875728637094,-17.620069520766382,0.1536833792924881,0.05420995131134987,0.9319661259651184,0.3044672906398773,0.47187331318855286,-0.042521197348833084,52.192508697509766,10.49148941040039,5.460391044616699
2.658653974533081,-0.14528120523542565,-9.09326648356434,-17.470717189280297,0.04374421387910843,0.0756632462143898,0.9966257214546204,0.2815864384174347,0.459102600812912,0.02931399643421173,52.13626480102539,10.373888969421387,5.402967929840088
2.6710128784179688,0.054073793905984366,-9.057079287567968,-17.3392018968117,0.16618172824382782,0.06574398279190063,0.9193997979164124,0.16877858340740204,0.0802384689450264,0.00590104516595602,52.091270446777344,10.279808044433594,5.494841575622559
2.6826469898223877,0.20630476998275088,-8.887671813131433,-17.16795368639385,0.12822377681732178,0.049596335738897324,0.9018068909645081,0.1453656256198883,0.2169913947582245,0.06602975726127625,52.055274963378906,10.204544067382812,5.568340301513672
2.695035934448242,0.42632520014912206,-8.83635147925525,-16.996676447672026,0.19210422039031982,0.13125728070735931,0.8652502298355103,0.07831944525241852,0.1648443639278412,0.04314892366528511,52.19544982910156,9.964859008789062,5.627139568328857
2.706676959991455,0.531554776401188,-8.62078558640777,-16.79564519737833,0.18099458515644073,0.082122303545475,0.977433443069458,0.03894311934709549,0.3601296842098236,0.09795651584863663,52.307586669921875,9.773111343383789,5.674178600311279
2.7190029621124268,0.5944411285022887,-8.222256001168574,-16.600504985243777,0.12359476834535599,0.0881200060248375,0.9744632244110107,-0.026506725698709488,0.5410479307174683,0.10327763855457306,52.05935287475586,10.158133506774902,5.711810111999512
2.7306368350982666,0.5836955333905661,-7.856468635263125,-16.414298660543597,0.08309086412191391,0.05651675537228584,0.9420192241668701,-0.0797179788351059,0.4436713457107544,0.111259326338768,51.86076736450195,10.466151237487793,5.741915225982666
2.7431399822235107,0.5363906036944098,-7.626053911160038,-16.251880177175277,0.10739320516586304,0.061591729521751404,0.9719499349594116,-0.14516782760620117,0.2914871573448181,0.093699611723423,51.532928466796875,10.712565422058105,5.7659993171691895
2.7547738552093506,0.4549246429469935,-7.495787689535908,-16.08165137249105,0.1571551412343979,0.06113036721944809,0.9762910604476929,-0.19571851193904877,0.2345511019229889,0.12136945873498917,51.27065658569336,10.909696578979492,5.785266399383545
2.767108917236328,0.2971550104433681,-7.444110478275592,-15.947993108170362,0.17752282321453094,0.03806230425834656,0.9102606177330017,-0.28298497200012207,0.17921140789985657,0.08146102726459503,51.06084060668945,10.887928009033203,6.076305389404297
2.7787318229675293,0.13668890730082894,-7.269788682731234,-15.805178975267273,0.168496236205101,0.048673614859580994,0.9070618748664856,-0.30959057807922363,0.3457626402378082,0.09529595077037811,50.89298629760742,10.870512962341309,6.309136867523193
2.791057825088501,-0.07147488142546206,-7.014163303514806,-15.679670834173704,0.17474541068077087,0.043367959558963776,0.9470457434654236,-0.3745083212852478,0.46921274065971375,0.076139897108078,50.92767333984375,10.85658073425293,6.219776630401611
2.802745819091797,-0.3299109968771625,-6.666110523789296,-15.564030608883511,0.15460918843746185,0.026066912338137627,0.9244263172149658,-0.4261232316493988,0.5857453346252441,0.06975454837083817,50.95542526245117,10.84543514251709,6.148288249969482
2.815088987350464,-0.6144290367780963,-6.235801775889323,-15.479237225432387,0.13979633152484894,0.024682827293872833,0.914830207824707,-0.4740133583545685,0.6937642097473145,0.03942413628101349,50.47071075439453,11.015992164611816,6.228910446166992
2.8267269134521484,-0.9433928785164485,-5.691190239116009,-15.405182606903816,0.12266896665096283,-0.002080988371744752,0.9703506231307983,-0.4984905421733856,0.8326456546783447,0.04314892366528511,50.08293914794922,11.152438163757324,6.293408393859863
2.83923602104187,-1.3212953991839123,-5.105659892798796,-15.348577414157337,0.10855045914649963,-0.027515290305018425,0.9383635520935059,-0.5373347997665405,0.8922421932220459,0.023460760712623596,49.94169235229492,10.902647972106934,6.345006465911865
2.8506920337677,-1.7181218127205427,-4.414499390306865,-15.30242582593556,0.0736013799905777,-0.047631509602069855,0.9347078800201416,-0.5405274629592896,1.004517912864685,0.013882732950150967,49.82869338989258,10.702816009521484,6.386284828186035
2.8631949424743652,-2.1256859239626675,-3.714264127728927,-15.282956371706439,0.07429572939872742,-0.06774772703647614,0.978804349899292,-0.5399953722953796,1.0348483324050903,-0.012722894549369812,50.07624053955078,10.722423553466797,6.832745552062988
2.874828815460205,-2.533989296460741,-2.978485841370712,-15.277671512836141,0.051844995468854904,-0.08393319696187973,0.9730923771858215,-0.5245640873908997,1.0710320472717285,-0.02283303439617157,50.27427673339844,10.738109588623047,7.189914226531982
2.887147903442383,-2.9457837493983368,-2.2040548741691595,-15.283439607590218,-0.000238512919167988,-0.1107548177242279,1.0011953115463257,-0.4995547831058502,1.0619860887527466,-0.04198908433318138,50.43270492553711,10.391711235046387,7.8890862464904785
2.8987908363342285,-3.3396948460981353,-1.5626248723023861,-15.307790939528605,0.009026584215462208,-0.11977243423461914,0.9847447872161865,-0.46762803196907043,0.906609296798706,-0.07444795221090317,50.5594482421875,10.114592552185059,8.448423385620117
2.911130905151367,-3.703317468923512,-0.9718846924740394,-15.353339763556127,0.013655602000653744,-0.12370318919420242,0.9692081809043884,-0.4245269000530243,0.8613797426223755,-0.10264991968870163,49.98495864868164,9.892897605895996,8.758081436157227
2.922760009765625,-4.049629404184315,-0.3666090963595386,-15.406519616433847,-0.004770258441567421,-0.14728772640228271,0.9740062952041626,-0.36865508556365967,0.8704255819320679,-0.10690681636333466,49.52536392211914,9.71554183959961,9.005807876586914
2.9352729320526123,-4.369082047420866,0.21494901470763672,-15.46990035683698,0.002545959549024701,-0.15884877741336823,0.9625822901725769,-0.31544381380081177,0.8677650690078735,-0.1154206171631813,48.65077590942383,9.394183158874512,9.4796142578125
2.946908950805664,-4.641353451418261,0.855176556434944,-15.536421276711026,-0.0162188783288002,-0.1627795249223709,0.978118896484375,-0.25052610039711,0.9406644105911255,-0.1143563911318779,47.95110321044922,9.137096405029297,9.858658790588379
2.959232807159424,-4.868652328599353,1.487316487174295,-15.619377339275417,-0.009302004240453243,-0.16046731173992157,0.9737777709960938,-0.19305795431137085,0.960884690284729,-0.12712709605693817,48.06725311279297,9.290374755859375,10.29970645904541
2.9708669185638428,-5.038083708697982,2.1713288765346896,-15.702995930189298,-0.04913366213440895,-0.14798139035701752,0.9662379622459412,-0.12973655760288239,0.9874902963638306,-0.12712709605693817,48.16017150878906,9.412997245788574,10.652544975280762
2.9832329750061035,-5.159386160810116,2.876873970862078,-15.794252380142545,-0.06916874647140503,-0.14543795585632324,0.9888573884963989,-0.07067206501960754,1.007710576057434,-0.12765920162200928,47.89656448364258,9.690567970275879,10.797003746032715
2.994874954223633,-5.236743602689211,3.5588391177404675,-15.892890557041286,-0.08228695392608643,-0.14150720834732056,0.9966257214546204,-0.014800246804952621,0.97312331199646,-0.13510876893997192,47.68567657470703,9.912625312805176,10.91257095336914
3.0072169303894043,-5.285791191119073,4.19710684874323,-15.98810168652397,-0.07990182936191559,-0.14566917717456818,0.9685227870941162,0.0410715714097023,0.9300222396850586,-0.14042989909648895,47.34799575805664,9.551850318908691,11.280649185180664
3.0188510417938232,-5.286249240680287,4.851876103337332,-16.06971220182187,-0.10423014312982559,-0.1438194066286087,0.9874865412712097,0.10598930716514587,0.9342790842056274,-0.1313839852809906,47.077850341796875,9.263230323791504,11.575111389160156
3.0313568115234375,-5.256510170147228,5.464817279454277,-16.15712667036698,-0.11877943575382233,-0.1445130705833435,0.9746916890144348,0.15707211196422577,0.8645724058151245,-0.1340445578098297,46.69276428222656,9.570755004882812,11.948493957519531
3.0429890155792236,-5.185232877289914,6.060851602941324,-16.24398277094745,-0.13523682951927185,-0.14081354439258575,0.9685227870941162,0.21613658964633942,0.8273245096206665,-0.1297876536846161,46.38469696044922,9.816774368286133,12.247200012207031
3.0553300380706787,-5.0610391207247485,6.635346071107089,-16.317011153553228,-0.14835503697395325,-0.133645698428154,0.9975396394729614,0.27839377522468567,0.7964619398117065,-0.12180597335100174,45.969268798828125,9.654643058776855,12.348352432250977
3.0669679641723633,-4.899357017126323,7.145690975701273,-16.37262938396464,-0.12879697978496552,-0.12532174587249756,0.9602975249290466,0.33000868558883667,0.7405900955200195,-0.10637470334768295,45.636924743652344,9.524938583374023,12.429274559020996
3.079300880432129,-4.7022509911712715,7.716199601599513,-16.423054963059553,-0.14811652898788452,-0.12462807446718216,0.951843798160553,0.3874768614768982,0.807104229927063,-0.08509020507335663,45.20207977294922,9.780121803283691,12.631824493408203
3.0909159183502197,-4.452873100611289,8.294669666749048,-16.458372163710397,-0.1266503632068634,-0.11121726036071777,0.9406483173370361,0.44600921869277954,0.8667007684707642,-0.05529189854860306,44.85420227050781,9.984268188476562,12.793864250183105
3.103257894515991,-4.154270036703026,9.01823002534258,-16.485820986437385,-0.17482997477054596,-0.10381819307804108,0.965552568435669,0.5061379075050354,1.0183528661727905,-0.0191082451492548,44.744873046875,10.686006546020508,12.92349624633789
3.1148929595947266,-3.8145155099322587,9.810543921895107,-16.494906845580793,-0.22062444686889648,-0.10173720866441727,0.9822314977645874,0.5636060833930969,1.0673072338104248,0.021332308650016785,44.65740966796875,11.247396469116211,13.027201652526855
3.127408981323242,-3.453045250469082,10.532323308662559,-16.485798788322583,-0.2330271154642105,-0.09803766757249832,0.9561849236488342,0.6008539795875549,0.9550315141677856,0.029846109449863434,44.08052444458008,10.978614807128906,13.661416053771973
3.1390459537506104,-3.039443999052606,11.224393080087747,-16.44567996468522,-0.26260271668434143,-0.08693906664848328,0.9836024045944214,0.6588542461395264,0.8933064937591553,0.05591962859034538,43.619014739990234,10.763588905334473,14.168787956237793
3.1513748168945312,-2.5932029811399318,11.76612441146543,-16.40283418802173,-0.22110147774219513,-0.06797894835472107,0.9369926452636719,0.6859919428825378,0.738993763923645,0.06922243535518646,43.24980926513672,11.488936424255371,14.574685096740723
3.163005828857422,-2.1015631899180636,12.35873809083877,-16.337242173874806,-0.20416705310344696,-0.052487149834632874,0.9287673830986023,0.7280288338661194,0.8539301156997681,0.11764467507600784,42.954444885253906,12.0692138671875,14.899402618408203
3.1753408908843994,-1.5645233447265323,13.087891520588897,-16.224914590332066,-0.256401389837265,-0.03422069549560547,0.9539000988006592,0.7615519165992737,0.9938757419586182,0.17032383382320404,42.7181510925293,11.995015144348145,15.296989440917969
3.1870110034942627,-1.0233175110281163,13.852982844430692,-16.072123258598882,-0.295040488243103,-0.040463659912347794,0.9431616067886353,0.7785795331001282,1.0002610683441162,0.22300297021865845,42.529117584228516,11.935656547546387,15.615058898925781
3.1993420124053955,-0.44645045926027044,14.583848944115198,-15.89845374612026,-0.31936880946159363,-0.01526058092713356,0.9660094976425171,0.7876254320144653,0.9459855556488037,0.25546184182167053,41.702003479003906,12.426589965820312,15.869514465332031
3.210991859436035,0.16329605595495908,15.202903139539304,-15.701331071579107,-0.3463207483291626,0.013610157184302807,0.9705790877342224,0.7892218232154846,0.7650673389434814,0.2852601408958435,41.040313720703125,12.819336891174316,16.073078155517578
3.2233328819274902,0.7900483548213452,15.655748096605734,-15.483193612509117,-0.32032284140586853,0.04059979319572449,0.9216845631599426,0.7705978751182556,0.5554150342941284,0.30920520424842834,40.679931640625,13.13353443145752,16.373743057250977
3.234966993331909,1.4234365026315159,16.04341085087544,-15.244555340645334,-0.24900749325752258,0.05490199103951454,0.8679919838905334,0.754102349281311,0.5703141689300537,0.3363429307937622,40.39162826538086,13.384892463684082,16.614274978637695
3.247473955154419,2.075265894396457,16.590831729831745,-14.980112614097242,-0.3067276179790497,0.0740484818816185,0.9310522079467773,0.7556986808776855,0.7581498622894287,0.3719944953918457,40.49892807006836,13.944926261901855,16.94451141357422
3.259105920791626,2.707959123819432,17.183900470558537,-14.703814386697303,-0.3768503963947296,0.08673591911792755,0.9481881260871887,0.713661789894104,0.7464433908462524,0.3916826546192169,40.58477020263672,14.392952919006348,17.208702087402344
3.271432876586914,3.3247629853554295,17.689172252146694,-14.410835129796897,-0.32986336946487427,0.09181089699268341,0.875303328037262,0.669496476650238,0.6719475984573364,0.4262699782848358,40.31549835205078,14.930848121643066,17.5578670501709
3.2832329273223877,3.9267773529042347,18.159773993507866,-14.12519320361238,-0.3422660529613495,0.10980398207902908,0.9171149730682373,0.6365054845809937,0.6469383239746094,0.4214809536933899,40.10008239746094,15.361164093017578,17.83719825744629
3.2954039573669434,4.515343718307519,18.612041799589427,-13.827067399172371,-0.38233619928359985,0.13610157370567322,0.9315091371536255,0.5870190262794495,0.5857453346252441,0.4193525016307831,39.420833587646484,14.987523078918457,17.9228515625
3.3070578575134277,5.058592205454592,19.04882215172799,-13.502781116437566,-0.3677869141101837,0.12110733240842819,0.9011214375495911,0.5370004773139954,0.5862774848937988,0.4587288200855255,38.87743377685547,14.688610076904297,17.99137306213379
3.319384813308716,5.568248968489896,19.40408078102786,-13.19180601862147,-0.3696950376033783,0.1432526707649231,0.8944955468177795,0.46410104632377625,0.4766623079776764,0.4438296854496002,38.44271469116211,14.808426856994629,17.90837860107422
3.33101487159729,6.0460808919743485,19.6841151219038,-12.889728095972963,-0.36611732840538025,0.1610150784254074,0.8981512188911438,0.4018439054489136,0.3893958628177643,0.4374443292617798,38.09493637084961,14.904279708862305,17.841981887817383
3.343519926071167,6.48229049643039,19.94096438564213,-12.598243796727145,-0.3615855872631073,0.16678209602832794,0.8892405033111572,0.3358619213104248,0.3707719147205353,0.4427654445171356,37.816715240478516,15.519383430480957,18.202302932739258
3.355151891708374,6.855925749692182,20.16101259013243,-12.330830791663745,-0.3577693700790405,0.16401393711566925,0.8798729181289673,0.25923770666122437,0.3266065716743469,0.435315877199173,37.594139099121094,16.01146697998047,18.49056053161621
3.367473840713501,7.1816826575326544,20.34865154701102,-12.067865947297316,-0.35800787806510925,0.15986168384552002,0.8684489130973816,0.19964110851287842,0.28031277656555176,0.4432975649833679,37.24710464477539,16.046186447143555,18.721166610717773
3.3791189193725586,7.449746238114499,20.524923361563417,-11.833774020099822,-0.3491829037666321,0.16885823011398315,0.8462864756584167,0.11343887448310852,0.2675420939922333,0.40019646286964417,36.969478607177734,16.07396125793457,18.905651092529297
3.3914449214935303,7.69629984545268,20.765535558097334,-11.589851743139388,-0.3343951106071472,0.16839686036109924,0.8316637873649597,0.07246620953083038,0.38833165168762207,0.41243502497673035,36.578407287597656,16.275653839111328,18.777612686157227
3.4030849933624268,7.907142662489097,21.096335279979392,-11.362232273954127,-0.38853755593299866,0.1919262856245041,0.8812437653541565,0.005952142179012299,0.47453388571739197,0.37944406270980835,36.26554870605469,16.437007904052734,18.675182342529297
3.4156079292297363,8.06394075394414,21.466087570698033,-11.131399200764378,-0.3930692970752716,0.1891581267118454,0.849942147731781,-0.07492896914482117,0.5117816925048828,0.36348068714141846,36.184234619140625,16.027671813964844,18.868864059448242
3.4270730018615723,8.171213143727423,21.868093722224764,-10.900344146426601,-0.4240759611129761,0.17647068202495575,0.8517699837684631,-0.12494754791259766,0.5208276510238647,0.36507701873779297,36.11918258666992,15.700202941894531,19.0238094329834
3.4395859241485596,8.212302708000573,22.17258697051852,-10.722165855322125,-0.4164435565471649,0.19307969510555267,0.8510845303535461,-0.22445259988307953,0.3952490985393524,0.30973732471466064,35.898170471191406,15.976648330688477,19.147764205932617
3.451220989227295,8.212188302331974,22.50465198494432,-10.536799643889855,-0.42312192916870117,0.17970021069049835,0.8691343665122986,-0.2696821391582489,0.45005670189857483,0.3379392921924591,35.72135925292969,16.197803497314453,19.246929168701172
3.463554859161377,8.138784259321847,22.753467238671423,-10.406884323234335,-0.442441463470459,0.19261832535266876,0.8625084757804871,-0.3718477487564087,0.2941477298736572,0.27461788058280945,35.74888229370117,16.195255279541016,19.326261520385742
3.475191831588745,8.017584260047263,23.005045303917793,-10.289637295941898,-0.5087480545043945,0.19284901022911072,0.8935816287994385,-0.43250858783721924,0.23029421269893646,0.27408576011657715,35.77090072631836,16.19321632385254,19.389726638793945
3.487623929977417,7.79540247521498,23.025573437468267,-10.223212852489876,-0.4393408000469208,0.17416387796401978,0.8519984483718872,-0.5378668904304504,-0.04374375194311142,0.24588382244110107,35.95748519897461,16.01211166381836,19.44049835205078
3.4991860389709473,7.49912423694546,22.953851328541255,-10.195128822170076,-0.4111962616443634,0.16908890008926392,0.8700482845306396,-0.6150231957435608,-0.12994599342346191,0.20810382068157196,36.106754302978516,15.867227554321289,19.481115341186523
3.511551856994629,7.134029708353945,22.82781897042889,-10.190726765250004,-0.3525221049785614,0.15870827436447144,0.8348625302314758,-0.6953722238540649,-0.15016625821590424,0.1612779200077057,35.71925354003906,15.212900161743164,19.789234161376953
3.523181915283203,6.7306229411605365,22.855102161068505,-10.188741741522469,-0.4011787176132202,0.16009236872196198,0.8579388856887817,-0.7507119178771973,0.004146376624703407,0.12243368476629257,35.40925216674805,14.689437866210938,20.035730361938477
3.5355188846588135,6.2569817656187094,22.91527783520361,-10.226844805581031,-0.4698704481124878,0.1589389592409134,0.9029492735862732,-0.8305287957191467,-0.025119813159108162,0.076139897108078,35.161251068115234,14.450141906738281,19.681676864624023
3.54715895652771,5.6968127654634,22.79442276048211,-10.317270533776476,-0.43218541145324707,0.1388697475194931,0.8670780658721924,-0.919923722743988,-0.2693594694137573,0.038892023265361786,34.962852478027344,14.258705139160156,19.398433685302734
3.559661865234375,5.0378378218878614,22.53861510059221,-10.467672153073803,-0.38639092445373535,0.11649372428655624,0.8556541204452515,-1.00772225856781,-0.4183509945869446,-0.030282609164714813,35.3110466003418,13.926081657409668,19.447463989257812
3.5712978839874268,4.334657040230355,22.28940711098783,-10.636206217070221,-0.40284833312034607,0.10680513828992844,0.9319661259651184,-1.0465664863586426,-0.39280959963798523,-0.06114513427019119,35.589603424072266,13.659982681274414,19.4866886138916
3.5836479663848877,3.530494899901972,22.01384654401825,-10.857456534854444,-0.4123888313770294,0.06528262048959732,0.9472742080688477,-1.1168053150177002,-0.4513419568538666,-0.12287019193172455,35.64347839355469,13.088156700134277,19.104631423950195
3.595292806625366,2.626325770076497,21.710765437335397,-11.142875626117291,-0.3797125518321991,0.008073822595179081,0.90020751953125,-1.1620348691940308,-0.48752561211586,-0.19257692992687225,35.68657684326172,12.630696296691895,18.79898452758789
3.607632875442505,1.669633446028976,21.38356693269323,-11.480695928692475,-0.3789970278739929,-0.05549301952123642,0.900892972946167,-1.1322365999221802,-0.5338194370269775,-0.24312762916088104,35.7210578918457,12.264727592468262,18.692279815673828
3.6192688941955566,0.695911486029056,21.02560354848203,-11.868529437691432,-0.4071415662765503,-0.07953999936580658,0.9223700165748596,-1.1199979782104492,-0.6152325868606567,-0.3261371850967407,35.74864196777344,11.971952438354492,18.606916427612305
3.6316018104553223,-0.2424712086073502,20.68002500478336,-12.225934453937981,-0.38853755593299866,-0.12532174587249756,0.9353933334350586,-1.029006838798523,-0.5641498565673828,-0.3037884533405304,36.10865020751953,11.199312210083008,18.40081214904785
3.6432340145111084,-1.1497041852036785,20.252934983529755,-12.594758692703147,-0.3656403124332428,-0.14751894772052765,0.9168865084648132,-0.9545110464096069,-0.6631227731704712,-0.34742167592048645,36.39665985107422,10.581199645996094,18.235929489135742
3.6557528972625732,-1.9735727019480178,19.84034033124221,-12.943137613961524,-0.3866294324398041,-0.14821261167526245,0.9207706451416016,-0.860859215259552,-0.6758934259414673,-0.36444929242134094,36.62706756591797,10.086709976196289,18.104022979736328
3.667387008666992,-2.703519714302335,19.39090022347703,-13.252197697489077,-0.37017205357551575,-0.15584290027618408,0.9301382899284363,-0.7485834956169128,-0.7051596641540527,-0.341036319732666,36.81139373779297,9.691118240356445,17.998498916625977
3.6797659397125244,-3.3876399993072743,18.855435590662832,-13.573799715880067,-0.3281937837600708,-0.15214335918426514,0.9120884537696838,-0.6916474103927612,-0.7817838191986084,-0.389458566904068,36.78988265991211,9.37464427947998,17.77626609802246
3.691401958465576,-3.9531794491409187,18.50229773510025,-13.840857551106627,-0.37541934847831726,-0.1768840104341507,0.9861156344413757,-0.5415917038917542,-0.5572323799133301,-0.3224124014377594,36.77267074584961,9.121465682983398,17.598480224609375
3.7037339210510254,-4.464978330254668,18.036330277090933,-14.100822234880129,-0.37303420901298523,-0.17873376607894897,0.9929700493812561,-0.4740133583545685,-0.7205909490585327,-0.3569996953010559,37.26581954956055,8.739449501037598,17.45625114440918
3.7153749465942383,-4.907717168670418,17.46948263258782,-14.344674502401569,-0.2895546853542328,-0.1708722561597824,0.9104890823364258,-0.3777009844779968,-0.7934902906417847,-0.3601923882961273,37.66033935546875,8.433835983276367,17.34246826171875
3.727707862854004,-5.255413924785441,16.931946744907815,-14.555317536404763,-0.3029114007949829,-0.16763517260551453,0.9363071918487549,-0.2702142596244812,-0.7722058296203613,-0.3569996953010559,37.9759521484375,7.830397605895996,17.251441955566406
3.7393429279327393,-5.55548035672338,16.337844938069058,-14.746772861482098,-0.3100667893886566,-0.18543918430805206,0.9733208417892456,-0.19625063240528107,-0.8605365753173828,-0.36338505148887634,38.22844314575195,7.347647190093994,17.178621292114258
3.7516818046569824,-5.7912994680072405,15.76191484951712,-14.907729684368032,-0.24781492352485657,-0.17942743003368378,0.8931246995925903,-0.10525938868522644,-0.7887012958526611,-0.32773351669311523,38.76837921142578,7.140920639038086,16.84473991394043
3.763312816619873,-5.9359351269846075,15.274633786202777,-15.045226515002268,-0.26665744185447693,-0.17642156779766083,0.9696651697158813,-0.01267179474234581,-0.6716365814208984,-0.31283438205718994,39.2003288269043,6.975539684295654,16.577634811401367
3.775830030441284,-6.017868368720787,14.74482967266323,-15.159452891134269,-0.2742898464202881,-0.16902250051498413,0.9696651697158813,0.0586312860250473,-0.7610315084457397,-0.31389859318733215,39.20794677734375,6.663760662078857,16.08832550048828
3.787461042404175,-6.033954317989814,14.246008150972504,-15.24250628389433,-0.24137507379055023,-0.17526546120643616,0.9513868093490601,0.15760421752929688,-0.6881320476531982,-0.2697332501411438,39.21403884887695,6.414337635040283,15.696877479553223
3.799794912338257,-5.9975622163183395,13.707204409427817,-15.339172243670228,-0.21323055028915405,-0.1539931297302246,0.9317376613616943,0.20655857026576996,-0.7221872806549072,-0.29474255442619324,39.38788604736328,6.753220081329346,15.383719444274902
3.8114309310913086,-5.863965423700183,13.296411219533862,-15.397177625196562,-0.254016250371933,-0.13827010989189148,0.9623538255691528,0.303935170173645,-0.6120399236679077,-0.2356780469417572,39.52696228027344,7.024325847625732,15.133193016052246
3.8237578868865967,-5.690487156518321,12.914556687379607,-15.430285259650907,-0.2814452350139618,-0.13896377384662628,0.9852017164230347,0.3576785624027252,-0.6178932189941406,-0.21332931518554688,40.145137786865234,6.882263660430908,15.070584297180176
3.835392951965332,-5.486898000380459,12.39567831519114,-15.45250557256825,-0.21299204230308533,-0.13827010989189148,0.9353933334350586,0.41248613595962524,-0.7408112287521362,-0.21066875755786896,40.639678955078125,6.768613815307617,15.02049732208252
3.8477208614349365,-5.249694922016025,11.794193073859597,-15.473976272224185,-0.14310775697231293,-0.13919499516487122,0.9321945905685425,0.46676161885261536,-0.7583708763122559,-0.21120087802410126,41.03531265258789,6.677694320678711,14.56698989868164
3.859360933303833,-4.919072785052387,11.3939670403853,-15.460667648626416,-0.18150833249092102,-0.10011865943670273,0.9687512516975403,0.532211422920227,-0.5407369136810303,-0.17182454466819763,41.3518180847168,6.604958534240723,14.204184532165527
3.8718738555908203,-4.562099351384018,11.13448473872193,-15.43532252416379,-0.20822177827358246,-0.10913627594709396,0.9486451148986816,0.5912759304046631,-0.4013233780860901,-0.10371414572000504,41.26708221435547,7.4441375732421875,13.9139404296875
3.883509874343872,-4.18206506464357,10.930894728810422,-15.418072881414924,-0.25067707896232605,-0.11561045795679092,0.9529861807823181,0.644487202167511,-0.39706647396087646,-0.08668654412031174,41.19929122924805,8.115480422973633,13.681744575500488
3.8958959579467773,-3.762212055702417,10.566492183759193,-15.402928644477713,-0.20702920854091644,-0.10913627594709396,1.002109169960022,0.6939736604690552,-0.550847053527832,-0.10424625873565674,41.651973724365234,8.114133834838867,13.495987892150879
3.907536029815674,-3.2767847484174983,10.13249598748106,-15.357634244996772,-0.20822177827358246,-0.0830083116889,0.98977130651474,0.7562308311462402,-0.6742970943450928,-0.07817274332046509,42.01411819458008,8.113057136535645,13.347382545471191
3.9198598861694336,-2.7586707170858373,9.668878968319873,-15.297197316125915,-0.18914073705673218,-0.07584046572446823,0.992056131362915,0.8014603853225708,-0.7009027004241943,-0.04997077211737633,42.47280502319336,8.291669845581055,13.366311073303223
3.931497812271118,-2.201860675898293,9.191546075531654,-15.213074998760746,-0.13547533750534058,-0.05988621711730957,0.9698936343193054,0.8413688540458679,-0.6535447835922241,-0.006869656499475241,42.83975601196289,8.43455982208252,13.381453514099121
3.9438259601593018,-1.5812672333117013,8.85598998066633,-15.094975905369347,-0.16385836899280548,-0.020347440615296364,0.9500159621238708,0.8791488409042358,-0.5157275795936584,0.04793793708086014,43.47126007080078,8.907818794250488,13.39356803894043
3.9554548263549805,-0.9189810353708825,8.474702354213184,-14.958285037057175,-0.14453883469104767,0.035755500197410583,0.9273965358734131,0.8557358384132385,-0.5684067010879517,0.06443342566490173,43.976463317871094,9.286425590515137,13.40325927734375
3.967972993850708,-0.23405502816771934,8.212172934406341,-14.765870070401453,-0.18961776793003082,0.06620534509420395,0.9762910604476929,0.8514789938926697,-0.46783745288848877,0.15063565969467163,43.87371063232422,9.40983772277832,13.135387420654297
3.9794328212738037,0.4156049514425226,7.801052749205874,-14.58363891579822,-0.15312530100345612,0.10173016041517258,0.9666949510574341,0.7588914036750793,-0.6359850168228149,0.13307595252990723,43.791507720947266,9.508567810058594,12.921089172363281
3.9919278621673584,1.044205830335602,7.424164618351862,-14.364727937804727,-0.14048410952091217,0.11487895995378494,0.9497874975204468,0.7141939401626587,-0.5779848098754883,0.19267255067825317,44.232662200927734,9.58755111694336,12.611839294433594
4.003559827804565,1.6155669492196243,6.9948859483560915,-14.142926936018672,-0.10852337628602982,0.12295278161764145,0.9294528365135193,0.6279916763305664,-0.6125720739364624,0.20544326305389404,44.58558654785156,9.650737762451172,12.364439010620117
4.015906810760498,2.124311775279026,6.561647476189006,-13.934439680472263,-0.09707475453615189,0.1307959258556366,0.9415622353553772,0.5423215627670288,-0.605122447013855,0.21182860434055328,44.52997970581055,10.060235023498535,12.028705596923828
4.027545928955078,2.5686300949403416,6.15158468964942,-13.721442792526355,-0.0577201247215271,0.11926189064979553,0.8997505903244019,0.46942219138145447,-0.5141312479972839,0.24269112944602966,44.485496520996094,10.387832641601562,11.760119438171387
4.0398759841918945,2.959105393044212,5.799602416717037,-13.534334029082087,-0.0536654070019722,0.13656294345855713,0.8892405033111572,0.3725776970386505,-0.4332501292228699,0.2171497344970703,44.61888122558594,10.829383850097656,11.545249938964844
4.051501989364624,3.3086949653329745,5.582889052088995,-13.333225085386585,-0.05986674129962921,0.14417539536952972,0.8983796834945679,0.31032052636146545,-0.2502034306526184,0.246415913105011,44.725589752197266,11.182624816894531,11.3733549118042
4.064007997512817,3.5874275148417905,5.492845387600248,-13.136903250525616,-0.09802880883216858,0.15155717730522156,0.9523007273674011,0.22039349377155304,-0.1283496469259262,0.23843424022197723,44.97992706298828,11.106270790100098,11.098026275634766
4.075908899307251,3.783948278962336,5.419971964911266,-12.937080943715015,-0.11782538145780563,0.13310272991657257,0.952072262763977,0.13844816386699677,-0.13739556074142456,0.25705817341804504,45.18339538574219,11.045186996459961,10.877763748168945
4.0878918170928955,3.923976548457706,5.285937613299405,-12.747892387668479,-0.11281660944223404,0.13148796558380127,0.9173434376716614,0.05597072094678879,-0.22785469889640808,0.25599396228790283,45.34617233276367,11.175793647766113,10.83936595916748
4.099531888961792,4.008522337551416,5.072556527212683,-12.564982483016475,-0.08180993050336838,0.13033455610275269,0.9225984811782837,-0.018525034189224243,-0.29117608070373535,0.26078295707702637,45.47639465332031,11.280279159545898,10.808647155761719
4.11204195022583,4.047073205887438,4.8512481528205145,-12.389910220437063,-0.03983165696263313,0.1356402188539505,0.9114030003547668,-0.09568135440349579,-0.23424004018306732,0.2501406967639923,45.918514251708984,11.36386775970459,10.370635032653809
4.123672008514404,4.044727889681185,4.790395436183933,-12.206568306320056,-0.08180993050336838,0.14094586670398712,0.964410126209259,-0.1510210633277893,-0.07088149338960648,0.25918662548065186,46.27220916748047,11.43073844909668,10.020225524902344
4.136006832122803,3.9806662647951656,4.712745149944173,-12.033496435393811,-0.08777275681495667,0.14463676512241364,0.9532146453857422,-0.24892978370189667,-0.11185415834188461,0.23577366769313812,46.21722412109375,10.94581413269043,9.739897727966309
4.147644996643066,3.8419818350189954,4.652582709300585,-11.856779804771717,-0.1063767597079277,0.1215686947107315,0.9717214703559875,-0.31704017519950867,-0.11717528104782104,0.24481958150863647,46.17323303222656,10.55787467956543,9.51563549041748
4.159977912902832,3.6550591942296102,4.487756157363014,-11.695460128086125,-0.08801126480102539,0.12733571231365204,0.952757716178894,-0.4037744998931885,-0.2480749785900116,0.22034241259098053,46.30701446533203,10.247523307800293,9.61185073852539
4.171607971191406,3.4102541153189523,4.269279750155462,-11.53728404596603,-0.09063491225242615,0.11464827507734299,0.9614399075508118,-0.46975645422935486,-0.3364056646823883,0.22087451815605164,46.414039611816406,9.999242782592773,9.688822746276855
4.1841139793396,3.116435172037459,3.9549501756832446,-11.388374823002351,-0.04245530068874359,0.1118801087141037,0.9267110824584961,-0.5506376028060913,-0.4055802822113037,0.20544326305389404,46.66862869262695,9.800618171691895,9.612587928771973
4.195573806762695,2.761170779765474,3.6342177257509625,-11.26875259742604,0.024302341043949127,0.09826995432376862,0.8892405033111572,-0.6304544806480408,-0.3044789135456085,0.15755312144756317,46.8723030090332,9.641717910766602,9.551599502563477
4.208086013793945,2.38261885751833,3.6546455408980014,-11.135861875613333,-0.08347952365875244,0.09596314281225204,0.9456748366355896,-0.6586564779281616,-0.004899537190794945,0.15702101588249207,47.035240173339844,9.335124015808105,9.502809524536133
4.219719886779785,1.9013425977014866,3.616572358917058,-11.036545802439472,-0.06368295103311539,0.06389853358268738,0.9548140168190002,-0.7613541483879089,-0.057046566158533096,0.11604834347963333,47.165592193603516,9.089849472045898,9.463777542114258
4.232051849365234,1.375132230882422,3.646244835105709,-10.933891474308764,-0.08085587620735168,0.04890429601073265,0.9989104866981506,-0.8113727569580078,0.01691707968711853,0.11338777840137482,47.4388427734375,8.714156150817871,9.156927108764648
4.243677854537964,0.8085151052637969,3.531960402365763,-10.86912847437235,-0.03363032266497612,0.05305654555559158,0.9358502626419067,-0.8965107798576355,-0.12196429818868637,0.05006638541817665,47.65744400024414,8.413601875305176,8.911446571350098
4.256098031997681,0.2016795312954622,3.4655592242456033,-10.820926121852278,-0.03768504038453102,0.03598617762327194,0.9495590329170227,-0.9396118521690369,-0.06130346655845642,0.03091033548116684,47.494380950927734,8.352631568908691,8.852874755859375
4.26780891418457,-0.4808733320166653,3.4562193674424337,-10.793874303870796,-0.021943189203739166,-0.019422557204961777,1.012847661972046,-0.9720706939697266,0.05203650891780853,0.01920386031270027,47.363929748535156,8.303854942321777,8.80601692199707
4.280160903930664,-1.167592877526765,3.4387080430709904,-10.84096931197168,0.006480624433606863,-0.017572790384292603,0.9367641806602478,-0.9928231239318848,0.08928438276052475,-0.08934710174798965,47.42854309082031,8.264833450317383,8.492905616760254
4.29178786277771,-1.9384917831537745,3.540569428927741,-10.997440408120209,-0.023374266922473907,-0.07607167959213257,0.9203136563301086,-1.019960880279541,0.21592716872692108,-0.23195326328277588,47.48023223876953,8.233616828918457,8.242416381835938
4.304121971130371,-2.7578209988644056,3.761884206622256,-11.218727438171221,-0.11782538145780563,-0.13156470656394958,1.0350102186203003,-1.0316673517227173,0.2563677132129669,-0.3405042290687561,47.18363952636719,7.670222282409668,8.31765079498291
4.315759897232056,-3.582672422518992,3.925178234864805,-11.421715537662124,-0.13642938435077667,-0.1930694729089737,1.040036678314209,-0.967281699180603,0.15526634454727173,-0.3245408535003662,46.94636535644531,7.219506740570068,8.377838134765625
4.328094005584717,-4.32942981108118,4.039029377479278,-11.58602683720418,-0.10947743058204651,-0.2120295912027359,1.0037086009979248,-0.8385105133056641,0.12387169897556305,-0.25909098982810974,47.09449005126953,7.397355079650879,8.563799858093262
4.339723825454712,-5.007369628660904,4.012170939228673,-11.734282923328477,-0.05128027871251106,-0.2423195242881775,0.9877150058746338,-0.7065466046333313,0.013724401593208313,-0.22716425359249115,47.212989807128906,7.539633750915527,8.712569236755371
4.3520519733428955,-5.5758676176222215,3.9775820074980817,-11.864246055308188,-0.0658295676112175,-0.23515167832374573,1.0071357488632202,-0.5846928358078003,-0.018202349543571472,-0.2202467918395996,47.138816833496094,7.2945098876953125,8.69377326965332
4.363708972930908,-6.038498101335165,4.004615896232992,-11.986699394295469,-0.08896531909704208,-0.22844627499580383,1.0149040222167969,-0.4580499827861786,0.03766946867108345,-0.2186504453420639,47.0794792175293,7.0984110832214355,8.678735733032227
4.37622594833374,-6.369555235971568,3.999211935939043,-12.08375382108041,-0.09302003681659698,-0.1761903464794159,0.9637247323989868,-0.34524214267730713,-0.0229913629591465,-0.22556790709495544,47.53892517089844,6.582584857940674,7.9776434898376465
4.387854814529419,-6.617316506132371,3.9923992491287783,-12.111361445705603,-0.06105930730700493,-0.17133469879627228,0.9066049456596375,-0.22870950400829315,0.015320740640163422,-0.13723722100257874,47.9064826965332,6.169923782348633,7.416769981384277
4.400198936462402,-6.807048489104748,4.1054849836693865,-12.06108613077243,-0.0617748461663723,-0.17711523175239563,0.9287673830986023,-0.15527796745300293,0.18027563393115997,-0.006869656499475241,47.86258316040039,6.019268035888672,7.519320964813232
4.411836862564087,-7.02043512472017,4.279075095198907,-11.972169874383559,-0.04484042897820473,-0.26174208521842957,1.0226722955703735,-0.0967455804347992,0.3042578399181366,0.08092891424894333,47.82746505737305,5.898743629455566,7.6013617515563965
4.424165964126587,-7.188263544797962,4.513310029482148,-11.927071842841258,-0.06463699787855148,-0.2850953936576843,0.977433443069458,0.02510819397866726,0.36917558312416077,0.03942413628101349,47.63039779663086,5.98179817199707,7.9426188468933105
4.435809850692749,-7.24849300667278,4.728259070870211,-11.954229528754874,-0.0739390030503273,-0.26220452785491943,0.9614399075508118,0.15813633799552917,0.3420378565788269,-0.06859471648931503,47.47274398803711,6.04824161529541,8.215624809265137
4.448143005371094,-7.1964102529304945,4.920013216723734,-12.031392737129448,-0.11210107058286667,-0.250412255525589,0.9840593338012695,0.300742506980896,0.26222094893455505,-0.151072159409523,47.346622467041016,6.280869960784912,8.434029579162598
4.459805965423584,-7.042123963542723,5.045661376695288,-12.131762366982784,-0.10756932944059372,-0.23977608978748322,1.003251552581787,0.43164220452308655,0.1840004175901413,-0.19204482436180115,47.245723724365234,6.466972827911377,8.608753204345703
4.472157955169678,-6.8449342677703395,5.078947449841699,-12.232733053483082,-0.04007016867399216,-0.24694395065307617,0.9285389184951782,0.5412573218345642,0.15739479660987854,-0.19576960802078247,46.827064514160156,6.077434062957764,8.610719680786133
4.483860015869141,-6.536354858805626,5.272563249130874,-12.328258371667589,-0.07513157278299332,-0.2275213897228241,0.9852017164230347,0.6583220958709717,0.34044149518013,-0.19151270389556885,46.49213409423828,5.765803337097168,8.612293243408203
4.496222019195557,-6.110114769216864,5.613136971715219,-12.407455268867533,-0.1459699124097824,-0.21711644530296326,1.003480076789856,0.8179558515548706,0.4436713457107544,-0.151072159409523,46.22418975830078,6.2343926429748535,8.889177322387695
4.507908821105957,-5.595315727510187,5.858110244034189,-12.513374427421505,-0.12808144092559814,-0.1775776743888855,0.9349363446235657,0.9222499132156372,0.3266065716743469,-0.19789806008338928,46.00983428955078,6.609263896942139,9.110684394836426
4.520242929458618,-4.947127360181391,6.198954612864397,-12.572783412822277,-0.18580156564712524,-0.14798139035701752,1.0283843278884888,1.0558102130889893,0.3941848874092102,-0.13936567306518555,46.176292419433594,6.729687690734863,9.150076866149902
4.531880855560303,-4.2443452908166845,6.343487819004213,-12.608596655961593,-0.1631428301334381,-0.11191092431545258,1.0270134210586548,1.0946544408798218,0.14462408423423767,-0.13617299497127533,46.3094596862793,6.826026916503906,9.181591033935547
4.544209957122803,-3.4585715138378568,6.504400245660544,-12.597047659848746,-0.17268335819244385,-0.07375947386026382,1.0002813339233398,1.1707464456558228,0.14143142104148865,-0.05848457291722298,46.415992736816406,7.441518783569336,9.206802368164062
4.555903911590576,-2.6169421573739573,6.569483837601126,-12.565880652892332,-0.13332872092723846,-0.023122092708945274,0.9621253609657288,1.1877740621566772,0.05629340559244156,-0.03347528353333473,46.501220703125,7.93391227722168,9.226971626281738
4.56823992729187,-1.7316218950584843,6.619488079401613,-12.504499450368721,-0.11329363286495209,0.015224922448396683,0.9580127596855164,1.2026731967926025,0.06640354543924332,0.01867174729704857,46.40043258666992,8.50730037689209,9.380919456481934
4.5798749923706055,-0.8611797591068562,6.77525011653693,-12.419739364089802,-0.1457313895225525,0.01637832447886467,0.9968541860580444,1.200544834136963,0.17761506140232086,0.07241511344909668,46.319801330566406,8.966011047363281,9.504077911376953
4.592370986938477,0.019547005891164752,6.922374525693121,-12.304560176568584,-0.1335672289133072,0.049596335738897324,0.9461318254470825,1.1755355596542358,0.17814718186855316,0.1091308742761612,46.593238830566406,9.1535062789917,9.602604866027832
4.603999853134155,0.8806236534874429,7.094448335226898,-12.15470241108392,-0.12879697978496552,0.056286074221134186,0.9353933334350586,1.1521224975585938,0.22763365507125854,0.1607457995414734,46.811988830566406,9.303502082824707,9.681426048278809
4.61634087562561,1.7070481550852479,7.279733438162773,-12.001222937791855,-0.13523682951927185,0.06113036721944809,0.9470457434654236,1.1154067516326904,0.24732181429862976,0.1804339587688446,46.818016052246094,9.782445907592773,9.882295608520508
4.627972841262817,2.5419735741570744,7.512911827558777,-11.811661282661905,-0.16385836899280548,0.07358712702989578,0.9744632244110107,1.124984860420227,0.2872302532196045,0.24109479784965515,46.822837829589844,10.165600776672363,10.042991638183594
4.640305995941162,3.3620449326097095,7.6683968151458854,-11.632497736769654,-0.15932662785053253,0.09504042565822601,0.9653240442276001,1.087736964225769,0.18878942728042603,0.24375537037849426,46.995670318603516,10.831071853637695,10.30936050415039
4.651943922042847,4.1798431187292,7.790703305066011,-11.43309804791395,-0.1338057518005371,0.11095738410949707,0.9294528365135193,1.0669845342636108,0.1861288696527481,0.283663809299469,47.133934020996094,11.363449096679688,10.522456169128418
4.664319038391113,4.9795144096783,7.922992970231757,-11.227835495429433,-0.13332872092723846,0.1264129877090454,0.9447609186172485,1.0361220836639404,0.21592716872692108,0.3044161796569824,46.90660095214844,11.789350509643555,10.279494285583496
4.676025867462158,5.778052316112,8.10154777551423,-11.000116134727563,-0.1681516021490097,0.1501730978488922,0.9785758256912231,1.0180301666259766,0.24732181429862976,0.34379252791404724,46.724735260009766,12.130071640014648,10.085124969482422
4.688355922698975,6.542165642242014,8.186946484480547,-10.765778320719948,-0.12331117689609528,0.15155717730522156,0.9203136563301086,0.9690758585929871,0.1845325380563736,0.3666733503341675,46.57924270629883,12.40264892578125,10.480879783630371
4.699987888336182,7.282490273266519,8.336225391433052,-10.507796099353042,-0.10399163514375687,0.15870827436447144,0.9333369731903076,0.9408738613128662,0.3282029330730438,0.39327898621559143,46.46284866333008,12.620710372924805,10.797483444213867
4.7123188972473145,8.015334566489392,8.539768443794017,-10.228848612328783,-0.09874434769153595,0.17739340662956238,0.8899259567260742,0.8977727293968201,0.4234510660171509,0.408710241317749,46.36973571777344,12.795160293579102,10.775141716003418
4.723948955535889,8.739443047763816,8.979652263136703,-9.901177117086592,-0.20011234283447266,0.19653990864753723,0.9573273062705994,0.8796809315681458,0.6352318525314331,0.4550040364265442,46.29524230957031,12.934720039367676,10.757267951965332
4.736457824707031,9.427109054721639,9.35026857278535,-9.564063739090503,-0.19820423424243927,0.20738188922405243,0.9404198527336121,0.8158274292945862,0.5538185834884644,0.47894909977912903,46.40462112426758,13.046367645263672,10.880782127380371
4.748082876205444,10.09059533824397,9.687883969685434,-9.209548746636516,-0.21633121371269226,0.21337959170341492,0.9200851917266846,0.77272629737854,0.49049726128578186,0.5156648755073547,46.492122650146484,13.135685920715332,10.979593276977539
4.760421991348267,10.722953034623968,9.868434897752843,-8.865606033244061,-0.16695904731750488,0.2253749817609787,0.8970088362693787,0.7141939401626587,0.35587278008461,0.5348209142684937,46.39315414428711,13.566086769104004,11.058642387390137
4.772053003311157,11.322091252201963,10.086151446415231,-8.498676318199928,-0.18174684047698975,0.22791247069835663,0.9221414923667908,0.6780102849006653,0.4138730466365814,0.5773899555206299,46.31398010253906,13.910408020019531,11.121881484985352
4.784385919570923,11.887931443802499,10.302017013812545,-8.121146149563936,-0.1831779181957245,0.2350635677576065,0.9182573556900024,0.6253311038017273,0.4255795180797577,0.5981423258781433,45.912696838378906,14.006391525268555,11.310284614562988
4.796109914779663,12.430714624312365,10.56102888619683,-7.729230748762251,-0.21513865888118744,0.24982713162899017,0.9219130277633667,0.5747804641723633,0.45537781715393066,0.6167662739753723,45.59166717529297,14.083178520202637,11.461007118225098
4.80836296081543,12.936340721963715,10.817581890479909,-7.317843332410505,-0.2408980429172516,0.25167256593704224,0.9321945905685425,0.5263581871986389,0.43409332633018494,0.6540141105651855,45.50381851196289,13.965134620666504,11.581584930419922
4.820008993148804,13.396324934260102,10.983598175993531,-6.910717527214024,-0.23207306861877441,0.2530566453933716,0.9294528365135193,0.46782585978507996,0.32979926466941833,0.6763628721237183,45.43354034423828,13.870698928833008,11.678047180175781
4.832525968551636,13.81876274291528,11.058058337004072,-6.503722776272244,-0.1812698245048523,0.24821236729621887,0.8906114101409912,0.41461458802223206,0.28190913796424866,0.7003079056739807,45.208343505859375,13.974624633789062,11.755217552185059
4.844156980514526,14.229941838497341,11.142432517594886,-6.079395993424732,-0.17077524960041046,0.25813162326812744,0.8721045851707458,0.37683460116386414,0.3250102400779724,0.7215924263000488,45.0281867980957,14.057765007019043,11.816953659057617
4.85655403137207,14.61301897451303,11.29441788700601,-5.649282332802927,-0.17960022389888763,0.2749713063240051,0.8992936015129089,0.32681602239608765,0.429304301738739,0.7136107683181763,44.88405990600586,14.303750038146973,12.279780387878418
4.868032932281494,14.98219752934139,11.573188642885496,-5.183736212088035,-0.24328318238258362,0.2821224331855774,0.9168865084648132,0.29382503032684326,0.5378552675247192,0.7487301826477051,44.768760681152344,14.50053882598877,12.650041580200195
4.880539894104004,15.306889354558162,11.817558297236566,-4.734248292998665,-0.2692810893058777,0.2881201207637787,0.9130023717880249,0.22411827743053436,0.45484569668769836,0.7513907551765442,44.67652130126953,14.478496551513672,12.808438301086426
4.892167806625366,15.594073195947812,11.988549521786895,-4.284623770125896,-0.2642723023891449,0.2809690237045288,0.9036347270011902,0.1794208288192749,0.36704713106155396,0.7875744104385376,44.60272979736328,14.460862159729004,12.935155868530273
4.904498815536499,15.837096449258743,12.05780678619718,-3.853529977358195,-0.2480534315109253,0.2821224331855774,0.9098036289215088,0.128338024020195,0.2531750500202179,0.7966203093528748,44.712669372558594,14.267281532287598,13.036529541015625
4.916177034378052,16.04923700223746,12.11234584671973,-3.4188501218328247,-0.2599790692329407,0.28719738125801086,0.927168071269989,0.08630113303661346,0.22869786620140076,0.8147121071815491,44.800621032714844,14.112417221069336,13.117629051208496
4.928509950637817,16.20566711725097,12.075582353512138,-2.9913212609250466,-0.2005893588066101,0.265974760055542,0.874617874622345,0.02510819397866726,0.17495450377464294,0.823758065700531,45.03995132446289,13.809051513671875,13.320321083068848
4.940141916275024,16.353880514692957,12.127832446889089,-2.5411394373046865,-0.21943189203739166,0.2793542444705963,0.8901544213294983,-0.0052222199738025665,0.2866981327533722,0.8210974931716919,45.231414794921875,13.56635856628418,13.482474327087402
4.952481031417847,16.477995297195843,12.222993203726645,-2.092705288338203,-0.25663989782333374,0.29158031940460205,0.9143732190132141,-0.04779122397303581,0.3010651767253876,0.8131157755851746,45.215614318847656,13.192730903625488,13.33657169342041
4.964116811752319,16.559465793615754,12.307732799438055,-1.6456818936004451,-0.2802526652812958,0.28788942098617554,0.9207706451416016,-0.10259881615638733,0.2563677132129669,0.8312076330184937,45.20297622680664,12.893829345703125,13.219849586486816
4.976629018783569,16.595918513216112,12.319219470074723,-1.2215350435488812,-0.2664189338684082,0.2830451428890228,0.9077473282814026,-0.16006697714328766,0.16431225836277008,0.8333360552787781,45.02389144897461,12.83418083190918,13.539909362792969
4.9882588386535645,16.595396003744607,12.196335829169731,-0.8192345001967501,-0.18961776793003082,0.2749713063240051,0.8705052733421326,-0.20636077225208282,0.0797063559293747,0.8359966278076172,44.88062286376953,12.786462783813477,13.795957565307617
5.000591993331909,16.581317276317918,12.155188208288635,-0.3992750096736535,-0.17387591302394867,0.2825837731361389,0.8625084757804871,-0.24573709070682526,0.22390885651111603,0.8136479258537292,44.59703826904297,12.3893404006958,13.862983703613281
5.0122230052948,16.549807906129356,12.301159596135562,0.044201679270496605,-0.2595020532608032,0.2973473370075226,0.925568699836731,-0.27926015853881836,0.38141417503356934,0.805134117603302,44.37017059326172,12.071642875671387,13.916604042053223
5.024601936340332,16.4693721833687,12.425037883338439,0.47432670241891384,-0.26999661326408386,0.28788942098617554,0.9159725904464722,-0.3404531180858612,0.3250102400779724,0.7987487316131592,44.52661895751953,11.638011932373047,14.235125541687012
5.036232948303223,16.327505739212953,12.478065764507125,0.8832659762008858,-0.23278860747814178,0.26182252168655396,0.8858133554458618,-0.39792126417160034,0.26275306940078735,0.7939597368240356,44.65177917480469,11.291107177734375,14.489943504333496
5.0485639572143555,16.170093784506253,12.493980959046901,1.2893631975970448,-0.2187163531780243,0.2701270282268524,0.8890120387077332,-0.43250858783721924,0.23135843873023987,0.7854459285736084,44.58293533325195,10.654635429382324,14.555984497070312
5.060220003128052,16.005902867048317,12.540687500138741,1.697187069471042,-0.23278860747814178,0.2869667112827301,0.8890120387077332,-0.4750775992870331,0.2505144774913788,0.7662898898124695,44.52785873413086,10.145458221435547,14.608818054199219
5.072566986083984,15.79297342722046,12.681020566825822,2.111724376968927,-0.2673729956150055,0.26897361874580383,0.9241978526115417,-0.5144539475440979,0.34469839930534363,0.771078884601593,44.48379898071289,9.917590141296387,14.513272285461426
5.0841968059539795,15.542447211106271,12.779126842742947,2.489649202472899,-0.27691349387168884,0.26136115193367004,0.8988366723060608,-0.5692615509033203,0.24625757336616516,0.7508586049079895,44.448551177978516,9.735296249389648,14.436835289001465
5.096582889556885,15.249128152294658,12.784263998772442,2.8453498730781193,-0.23421968519687653,0.2523646056652069,0.888555109500885,-0.6160874366760254,0.1664407104253769,0.7322346568107605,43.91343688964844,9.051039695739746,14.651310920715332
5.1082680225372314,14.937874724269884,12.822183501497062,3.215892117862954,-0.22420214116573334,0.25005781650543213,0.9038631916046143,-0.642160952091217,0.2361474335193634,0.7311704754829407,43.485347747802734,8.503634452819824,14.822891235351562
5.120599985122681,14.57845480221818,12.908430861467751,3.5678361844246664,-0.24757641553878784,0.23875446617603302,0.9223700165748596,-0.6911153197288513,0.26168885827064514,0.6955189108848572,43.818763732910156,7.886236667633057,14.684530258178711
5.13224196434021,14.189595911070077,13.051330371735466,3.913232234006453,-0.28502294421195984,0.2290658801794052,0.9351648092269897,-0.7262347340583801,0.28244122862815857,0.6800876259803772,44.08549499511719,7.392318248748779,14.57384204864502
5.144621849060059,13.7733069802152,13.109597007997552,4.222677796335288,-0.27906012535095215,0.23091131448745728,0.9168865084648132,-0.7773175239562988,0.1499452143907547,0.6572068333625793,43.9609375,7.176657676696777,14.898728370666504
5.1562559604644775,13.320264801436485,13.061748971540673,4.496107344283824,-0.2707121670246124,0.22514429688453674,0.9289959073066711,-0.817225992679596,0.0014858134090900421,0.646032452583313,43.861289978027344,7.004129409790039,15.158638000488281
5.168597936630249,12.815096326459527,12.902181238377189,4.748838857726282,-0.21490013599395752,0.20599780976772308,0.8986081480979919,-0.8693730235099792,-0.09961557388305664,0.6210231781005859,43.44363021850586,5.968738555908203,14.95312786102295
5.180227994918823,12.307088200335134,12.819774152267339,5.014762027776974,-0.2461453378200531,0.21199551224708557,0.9180288910865784,-0.8922538757324219,-0.04161530360579491,0.6039955615997314,43.109500885009766,5.140425682067871,14.78872013092041
5.192730903625488,11.739070885936657,12.67778220338559,5.248650329959836,-0.2187163531780243,0.18938879668712616,0.8986081480979919,-0.9475935697555542,-0.11238627135753632,0.5603623390197754,43.01116943359375,4.298302173614502,14.657193183898926
5.2043609619140625,11.14797094723812,12.609419693756578,5.485779130017046,-0.24757641553878784,0.176240012049675,0.9308237433433533,-0.9646211862564087,-0.05278966575860977,0.5449310541152954,42.93250274658203,3.624603509902954,14.551972389221191
5.216745853424072,10.535073313577135,12.47732468898218,5.681008134610813,-0.2509155869483948,0.18685132265090942,0.9353933334350586,-1.0146397352218628,-0.16719385981559753,0.4933161735534668,43.038543701171875,3.265117645263672,14.467795372009277
5.228377819061279,9.871721072517266,12.290268005730331,5.84874434713481,-0.21490013599395752,0.15086513757705688,0.9022638201713562,-1.044970154762268,-0.21880878508090973,0.4725637435913086,43.123374938964844,2.9775290489196777,14.400453567504883
5.24071192741394,9.186897278027814,12.141095820483606,6.01380440616463,-0.23374265432357788,0.1432526707649231,0.9251117706298828,-1.0683830976486206,-0.20337751507759094,0.43212321400642395,42.85329818725586,1.8500903844833374,14.484393119812012
5.252326965332031,8.484258642635677,11.915841304298464,6.159706638346211,-0.19629612565040588,0.1453288048505783,0.9100321531295776,-1.1066951751708984,-0.27361637353897095,0.38104039430618286,42.63723373413086,0.9481394290924072,14.551544189453125
5.264676809310913,7.767840954366687,11.774459803573786,6.304777294996343,-0.21656973659992218,0.1324106901884079,0.9404198527336121,-1.1152089834213257,-0.18741413950920105,0.35869166254997253,42.46438217163086,0.4060521721839905,14.32964038848877
5.276309967041016,7.014753261104366,11.600710036372416,6.410977771966756,-0.18198536336421967,0.12456754595041275,0.9353933334350586,-1.1620348691940308,-0.1948637217283249,0.29270970821380615,42.32610321044922,-0.02761763520538807,14.152117729187012
5.288820028305054,6.252636484646112,11.523233493069668,6.526291855724081,-0.17554551362991333,0.10472901165485382,0.8821576833724976,-1.173209309577942,-0.07034938037395477,0.27461788058280945,42.38444900512695,-0.7335001230239868,13.734474182128906
5.300451040267944,5.4583725690855465,11.524680639400065,6.609518564534333,-0.21132244169712067,0.09757790714502335,0.9353933334350586,-1.2088608741760254,-0.009688549675047398,0.21129649877548218,42.43112564086914,-1.298206090927124,13.400359153747559
5.3127830028533936,4.626698853667175,11.512718416842434,6.664083238266272,-0.22730280458927155,0.07866209745407104,0.9991389513015747,-1.235998511314392,-0.0400189645588398,0.17032383382320404,42.80641174316406,-1.7499709129333496,13.546504974365234
5.324410915374756,3.7603320461333705,11.464435809599614,6.682762524985788,-0.2389899492263794,0.053748589009046555,0.9993674159049988,-1.2599436044692993,-0.11983584612607956,0.12403003126382828,43.10663986206055,-2.1113827228546143,13.663421630859375
5.336779832839966,2.8379220423557303,11.306857369031896,6.64844850836929,-0.2024974673986435,0.013840838335454464,0.9616683721542358,-1.285485029220581,-0.24435018002986908,0.05485539883375168,42.839908599853516,-2.5799858570098877,13.481329917907715
5.3484179973602295,1.8958688414119562,11.15218944282425,6.58481974672192,-0.2005893588066101,-0.028440173715353012,0.9701220989227295,-1.260475754737854,-0.24222172796726227,0.01441484596580267,42.626522064208984,-2.9548683166503906,13.33565616607666
5.360759973526001,0.929896531438209,10.955374980569394,6.478247451328565,-0.21394608914852142,-0.07190970331430435,0.9797182679176331,-1.2365306615829468,-0.33002030849456787,-0.05688823387026787,42.624786376953125,-3.6137218475341797,12.805679321289062
5.372390985488892,-0.03881693221864111,10.709284972321127,6.340240064053873,-0.16552796959877014,-0.11907877773046494,0.951843798160553,-1.1721450090408325,-0.335873544216156,-0.10424625873565674,42.62339782714844,-4.140804767608643,12.381698608398438
5.384907007217407,-0.9622832607699997,10.554659734795793,6.208003332854195,-0.180315762758255,-0.17110347747802734,0.990685224533081,-1.05401611328125,-0.21721243858337402,-0.11967752128839493,42.62228775024414,-5.10089111328125,12.180326461791992
5.396358966827393,-1.804602359618365,10.429559697505132,6.07567695542166,-0.20035085082054138,-0.18451429903507233,1.014675498008728,-0.9417403340339661,-0.1975242793560028,-0.15373271703720093,42.62139892578125,-5.868960380554199,12.0192289352417
5.408867835998535,-2.541237407830594,10.370580160248425,5.969760785075449,-0.23469671607017517,-0.20278075337409973,1.013990044593811,-0.7837029099464417,-0.15282683074474335,-0.14575102925300598,42.62068557739258,-6.662889003753662,11.890350341796875
5.420503854751587,-3.2047561347514826,10.157654135515156,5.837009228367081,-0.19581910967826843,-0.20740516483783722,0.9765195250511169,-0.6661060452461243,-0.32576340436935425,-0.21332931518554688,42.6201171875,-7.298032283782959,11.787247657775879
5.432832956314087,-3.754808984415769,9.927470784070202,5.722868656486529,-0.18079279363155365,-0.2187349945306778,0.9847447872161865,-0.5038117170333862,-0.32629552483558655,-0.21066875755786896,42.61966323852539,-7.806146621704102,11.291327476501465
5.444468975067139,-4.197370237913099,9.672742294069161,5.624292378177143,-0.1376219540834427,-0.21572911739349365,0.9392774701118469,-0.35109537839889526,-0.30660736560821533,-0.20481552183628082,42.61929702758789,-8.212637901306152,10.894591331481934
5.456883907318115,-4.506461911065563,9.542841487565628,5.546886271200211,-0.16433539986610413,-0.20694272220134735,0.9744632244110107,-0.19625063240528107,-0.16453330218791962,-0.19204482436180115,42.6190071105957,-8.53783130645752,10.715015411376953
5.468536853790283,-4.697751604055526,9.550103686200643,5.506952289557263,-0.22634875774383545,-0.22335940599441528,1.0087350606918335,-0.022781934589147568,-0.05598234012722969,-0.14309047162532806,42.6187744140625,-8.797986030578613,10.571354866027832
5.480885028839111,-4.8125457396622835,9.422002634543409,5.4604139418737345,-0.20440557599067688,-0.22359062731266022,0.9849732518196106,0.09747549891471863,-0.22466202080249786,-0.18087045848369598,42.787559509277344,-9.18558406829834,10.180801391601562
5.492627859115601,-4.785800853306629,9.281633709363184,5.436300385895827,-0.2277798354625702,-0.22243452072143555,1.0487189292907715,0.27786165475845337,-0.2629741430282593,-0.17288877069950104,42.92258834838867,-9.495661735534668,9.868358612060547
5.50493597984314,-4.660097624934892,8.933154896588194,5.411138822767147,-0.16839012503623962,-0.2085612714290619,1.0478049516677856,0.4013117849826813,-0.48486506938934326,-0.19098059833049774,42.69266891479492,-9.384777069091797,10.031841278076172
5.516592025756836,-4.430915323090169,8.5774343757457,5.404396572282698,-0.14430031180381775,-0.18127720057964325,0.9383635520935059,0.5433858036994934,-0.49763575196266174,-0.16384285688400269,42.508731842041016,-9.296069145202637,10.162628173828125
5.528928995132446,-4.0931027044778,8.283692698979191,5.421496804643471,-0.14859354496002197,-0.1606985330581665,0.9539000988006592,0.666303813457489,-0.4242042303085327,-0.1319161057472229,42.53055191040039,-9.225102424621582,9.853819847106934
5.540552854537964,-3.67163862466617,8.041058766450952,5.468573883497784,-0.1784076690673828,-0.16532295942306519,0.9671518802642822,0.7987998127937317,-0.4071766138076782,-0.08402597904205322,42.54800796508789,-9.168329238891602,9.606773376464844
5.552886009216309,-3.1841985460102133,7.727755427901528,5.509276688309183,-0.13595236837863922,-0.1586175560951233,0.9093466997146606,0.9110755920410156,-0.46358054876327515,-0.07178738713264465,43.06888961791992,-8.76396369934082,9.546948432922363
5.564520835876465,-2.590476455000627,7.502794609850695,5.572984850905653,-0.15574893355369568,-0.1627795249223709,0.9931985139846802,1.059535026550293,-0.35822227597236633,-0.018576133996248245,43.485595703125,-8.440471649169922,9.499088287353516
5.576896905899048,-1.8391033526633918,7.278450216372456,5.667487348261949,-0.18985627591609955,-0.08740150928497314,1.1019545793533325,1.1670217514038086,-0.39600226283073425,0.010690058581531048,43.81896209716797,-8.18167781829834,9.460800170898438
5.58852481842041,-0.9467422325306936,7.142826565118098,5.841078740451939,-0.19200289249420166,-0.006705406587570906,0.978118896484375,1.2643983364105225,-0.317249596118927,0.12243368476629257,44.085655212402344,-7.974642753601074,9.430170059204102
5.601027965545654,-0.00574046383743829,6.91124003668553,6.036205292208156,-0.16695904731750488,0.050288379192352295,0.9267110824584961,1.2564165592193604,-0.4375070333480835,0.15116778016090393,44.299007415771484,-7.809014797210693,9.681290626525879
5.612668991088867,0.9557344967381326,6.593652888866039,6.267628322987467,-0.1569415032863617,0.0913495346903801,1.0503182411193848,1.2521597146987915,-0.5183881521224976,0.21129649877548218,44.469688415527344,-7.676512718200684,9.882186889648438
5.62500786781311,1.883607798078137,6.22188227724766,6.512475236806791,-0.1032760962843895,0.09757790714502335,1.0057648420333862,1.2074623107910156,-0.5242413282394409,0.2639756500720978,44.60623550415039,-7.032089710235596,9.767278671264648
5.636638879776001,2.831664308415529,5.932447034752847,6.781829723141768,-0.12188009917736053,0.1448674350976944,0.9413337707519531,1.1680859327316284,-0.4518740773200989,0.3177190124988556,44.71547317504883,-6.516551494598389,9.675352096557617
5.64896297454834,3.732546836589759,5.610878740420884,7.052307775595212,-0.11066999286413193,0.15686284005641937,0.9034062623977661,1.0925259590148926,-0.4880577325820923,0.3523063063621521,44.971832275390625,-5.924647331237793,9.877436637878418
5.660604000091553,4.598268191246998,5.362089099903169,7.339816904744082,-0.13857600092887878,0.1746252477169037,0.951158344745636,1.0483605861663818,-0.41728675365448,0.4049854576587677,45.17692184448242,-5.4511237144470215,10.039104461669922
5.672938823699951,5.410699556226151,4.990175908085867,7.623359401532468,-0.08491060137748718,0.18408314883708954,0.9287673830986023,0.9717364311218262,-0.510406494140625,0.4188203811645508,45.172019958496094,-5.251778602600098,10.168437957763672
5.684628009796143,6.177004946192914,4.621916013700874,7.939022570440131,-0.050803251564502716,0.18062293529510498,0.9155156016349792,0.9259747266769409,-0.44442451000213623,0.4778848886489868,45.16809844970703,-5.092302322387695,10.271904945373535
5.696951866149902,6.877744788995788,4.303237743161474,8.237366087159934,-0.03219924494624138,0.1903115212917328,0.9212275743484497,0.8392403721809387,-0.34066256880760193,0.47575643658638,45.33393478393555,-4.426301002502441,10.354679107666016
5.708578824996948,7.496857467914662,4.211067328519913,8.56775172882356,-0.11162404716014862,0.15986168384552002,0.9808606505393982,0.8046530485153198,-0.12994599342346191,0.5507842898368835,45.46660232543945,-3.8935000896453857,10.4208984375
